state_time,accelx,accely,accelz,gyrox,gyroy,gyroz,mot_ang,mot_vel,mot_acc,mot_cur,mot_volt,batt_volt,batt_curr,temperature,status_mn,status_ex,status_re,genvar_0,genvar_1,genvar_2,genvar_3,genvar_4,genvar_5,genvar_6,genvar_7,genvar_8,genvar_9,genvar_10,genvar_11,genvar_12,genvar_13,genvar_14,ank_ang,ank_vel,shank_ang,shank_vel,global_shank_ang,ank_pos_x,ank_pos_y,ank_pos_z,ank_linear_vel_x,ank_linear_vel_y,ank_linear_vel_z,mot_from_ank,ank_from_mot,trans_ratio,ank_torque,peak_ank_torque,step_energy,step_count,step_time,gait_state,intermediate_state,movement,speed,incline,sys_time,event flags
605188,137,-2050,299,-99,-33,-78,13114,1,33,-267,-64,35047,-17,39,127,0,0,1,0,1,0,100,0,100,0,0,-1,1,5,1,46,24,3584,-27,2127,-2,81,6,-13,0,-3,3,0,18306,2594,1158,0,12984,-6124,287,5548,-4,0,0,-47,0,605190,0
605198,151,-2044,298,-100,-39,-67,13110,-18,25,-327,-96,35057,-31,39,127,0,0,1,0,1,0,100,0,100,0,0,-1,1,5,1,49,25,3587,10,2125,-2,74,6,-13,0,-3,3,0,18318,2593,1158,0,12984,-6124,287,5558,-4,0,0,-47,0,605190,0
605208,137,-2048,293,-102,-38,-59,13104,-2,-7,-308,-112,35058,-20,39,127,0,0,1,0,1,0,100,0,100,0,0,-1,1,5,1,51,25,3584,-16,2123,-1,68,6,-13,0,-3,3,0,18306,2592,1158,0,12984,-6124,287,5568,-4,0,0,-47,0,605190,0
605218,118,-2045,288,-103,-42,-55,13095,-27,-3,-296,-96,35057,-14,39,127,0,0,1,0,1,0,100,0,100,0,0,-1,2,5,1,54,25,3584,-5,2122,-1,62,6,-13,0,-3,3,0,18306,2590,1158,0,12984,-6124,287,5578,-4,0,0,-47,0,605222,0
605228,121,-2046,281,-93,-36,-58,13083,-34,-14,-258,-48,35051,-14,39,127,0,0,1,0,1,0,100,0,100,0,0,-1,2,5,1,56,25,3580,10,2120,-1,56,6,-13,0,-3,3,0,18283,2588,1158,0,12984,-6124,287,5588,-4,0,0,-47,0,605224,0
605238,127,-2050,281,-94,-35,-61,13065,-53,-15,-151,-32,35052,-28,39,127,0,0,1,0,1,0,100,0,100,0,0,-1,1,5,1,59,26,3574,-65,2118,-1,50,6,-13,0,-3,3,0,18253,2584,1158,0,12984,-6124,287,5598,-4,0,0,-47,0,605228,0
605248,133,-2052,279,-92,-30,-72,13052,-17,0,-66,-8,35049,-36,39,127,0,0,1,0,1,0,100,0,100,0,0,-1,1,5,1,61,26,3578,-54,2116,-2,44,6,-13,0,-3,3,0,18271,2582,1158,0,12984,-6124,287,5608,-4,0,0,-47,0,605240,0
605258,136,-2038,292,-85,-35,-63,13053,-1,43,-148,-32,35049,-17,39,127,0,0,1,0,1,0,100,0,100,0,0,-1,1,5,1,64,26,3579,-5,2114,-1,38,6,-13,0,-3,3,0,18277,2582,1158,0,12984,-6124,287,5618,-4,0,0,-47,0,605240,0
605268,115,-2049,293,-79,-39,-68,13049,2,14,-145,-48,35050,-9,39,127,0,0,1,0,1,0,100,0,100,0,0,-1,1,5,1,66,26,3577,-16,2112,-2,32,6,-13,0,-3,3,0,18265,2581,1158,0,12984,-6124,287,5628,-4,0,0,-47,0,605257,0
605278,109,-2053,296,-83,-36,-69,13046,2,-2,-152,-40,35064,-7,39,127,0,0,1,0,1,0,100,0,100,0,0,-1,2,5,1,69,27,3577,-27,2110,-2,27,6,-13,0,-3,3,0,18265,2580,1158,0,12984,-6124,287,5638,-4,0,0,-47,0,605257,0
605288,115,-2050,312,-83,-33,-67,13044,-12,-1,-192,-80,35060,-5,39,127,0,0,1,0,1,0,100,0,100,0,0,-1,1,5,1,71,27,3579,49,2108,-2,21,6,-13,0,-3,3,0,18277,2580,1158,0,12984,-6124,287,5648,-4,0,0,-47,0,605290,0
605298,133,-2048,305,-89,-25,-74,13035,-23,-10,-209,-64,35068,12,39,127,0,0,1,0,1,0,100,0,100,0,0,-1,3,5,1,74,27,3569,-10,2106,-2,15,6,-13,0,-3,3,0,18224,2578,1158,0,12984,-6124,287,5658,-4,0,0,-47,0,605290,0
605308,141,-2049,294,-94,-28,-68,13018,-49,-31,-207,-24,35058,17,39,127,0,0,1,1,1,0,100,100,100,0,0,-1,2,5,1,76,27,3569,5,2103,-2,9,6,-13,0,-3,3,0,18224,2575,1158,0,12984,-6124,287,5668,-4,0,0,-47,0,605290,0
605318,143,-2049,285,-85,-28,-68,12999,-30,-23,-56,8,35062,8,39,127,0,0,1,0,1,0,100,0,100,0,0,-1,2,5,2,2,28,3566,-27,2101,-2,3,6,-13,0,-3,3,0,18207,2571,1158,0,12984,-6124,287,5678,-4,0,0,-47,0,605306,0
605328,160,-2052,289,-83,-33,-57,12998,-5,34,-142,-32,35062,11,38,127,0,0,1,0,1,0,100,0,100,0,0,-1,2,5,2,4,28,3568,0,2099,-1,-2,6,-13,0,-3,3,0,18219,2571,1158,0,12984,-6124,287,5688,-4,0,0,-47,0,605306,0
605338,138,-2048,285,-86,-31,-49,12996,-2,21,-121,-24,35061,17,38,127,0,0,1,0,1,0,100,0,100,0,0,-1,1,5,2,7,28,3571,32,2098,-1,-8,6,-13,0,-3,3,0,18236,2571,1158,0,12984,-6124,287,5698,-4,0,0,-47,0,605339,0
605348,144,-2050,279,-79,-33,-39,12995,-13,-1,-152,-24,35067,19,39,127,0,0,1,0,1,0,100,0,100,0,0,-1,1,5,2,9,29,3568,71,2096,-1,-13,6,-13,0,-3,3,0,18219,2571,1158,0,12984,-6124,287,5708,-4,0,0,-47,0,605339,0
605358,174,-2050,275,-79,-29,-27,12994,0,-2,-152,-24,35063,7,39,127,0,0,1,0,1,0,100,0,100,0,0,-1,1,5,1,12,29,3565,10,2095,0,-19,6,-13,0,-3,3,0,18201,2570,1158,0,12984,-6124,287,5718,-4,0,0,-47,0,605339,0
605368,170,-2058,281,-75,-26,-22,12994,-10,4,-168,-48,35064,-15,39,127,0,0,1,0,1,0,100,0,100,0,0,-1,1,5,1,14,29,3566,-5,2094,0,-24,6,-13,0,-3,3,0,18207,2570,1158,0,12984,-6124,287,5728,-4,0,0,-47,0,605366,0
605378,138,-2040,284,-68,-28,-13,12994,2,-3,-162,-24,35060,-3,39,127,0,0,1,0,1,0,100,0,100,0,0,-1,2,5,0,17,30,3565,-21,2094,0,-28,6,-13,0,-3,3,0,18201,2570,1158,0,12984,-6124,287,5738,-4,0,0,-47,0,605373,0
605388,141,-2039,276,-65,-24,-2,12993,-1,3,-174,-40,35054,15,38,127,0,0,1,0,1,0,100,0,100,0,0,-1,2,5,0,19,30,3566,0,2094,0,-32,6,-13,0,-3,3,0,18207,2570,1158,0,12984,-6124,287,5748,-4,0,0,-47,0,605378,0
605398,151,-2048,273,-55,-16,0,12993,4,4,-140,-40,35063,26,39,127,0,0,1,0,1,0,100,0,100,0,0,-1,1,5,0,22,30,3566,-21,2094,0,-36,6,-13,0,-3,3,0,18207,2570,1158,0,12984,-6124,287,5758,-4,0,0,-47,0,605431,0
605408,163,-2043,280,-57,-13,5,12990,-11,-5,-167,-16,35075,10,39,127,0,0,1,0,1,0,100,0,100,0,0,-1,1,5,0,24,30,3565,5,2094,0,-40,6,-13,0,-3,3,0,18201,2570,1158,0,12984,-6124,287,5768,-4,0,0,-47,0,605439,0
605418,173,-2047,288,-47,-14,22,12994,7,2,-138,-24,35075,27,39,127,0,0,1,0,1,0,100,0,100,0,0,-1,1,5,0,27,31,3568,-5,2094,0,-44,6,-13,0,-3,3,0,18219,2570,1158,0,12984,-6124,287,5778,-4,0,0,-47,0,605440,0
605428,136,-2052,293,-41,-18,31,12994,9,7,-101,-24,35066,16,38,127,0,0,1,0,1,0,100,0,100,0,0,-1,1,5,0,29,31,3568,0,2095,0,-47,6,-13,0,-3,3,0,18219,2570,1158,0,12984,-6124,287,5788,-4,0,0,-47,0,605442,0
605438,140,-2047,297,-53,-16,31,12992,2,-6,-101,-16,35050,10,38,127,0,0,1,0,1,0,100,0,100,0,0,-1,1,5,0,32,31,3568,27,2096,0,-49,6,-13,0,-3,3,0,18219,2570,1158,0,12984,-6124,287,5798,-4,0,0,-47,0,605442,0
605448,154,-2046,304,-48,-13,39,12995,3,4,-76,0,35052,-6,38,127,0,0,1,0,1,0,100,0,100,0,0,-1,1,5,0,34,31,3570,21,2097,1,-52,6,-13,0,-3,3,0,18230,2571,1158,0,12984,-6124,287,5808,-4,0,0,-47,0,605456,0
605458,154,-2042,289,-48,-20,43,12993,-1,-4,-64,0,35053,-8,38,127,0,0,1,0,1,0,100,0,100,0,0,-1,1,5,0,37,32,3570,43,2098,1,-54,6,-13,0,-3,3,0,18230,2570,1158,0,12984,-6124,287,5818,-4,0,0,-47,0,605456,0
605468,153,-2052,280,-52,-8,49,12995,2,-2,-42,0,35061,11,38,127,0,0,1,0,1,0,100,0,100,0,0,-1,1,5,0,39,32,3573,49,2100,1,-56,6,-13,0,-3,3,0,18248,2571,1158,0,12984,-6124,287,5828,-4,0,0,-47,0,605459,0
605478,139,-2053,276,-45,-10,51,12998,5,3,22,16,35068,10,38,127,0,0,1,0,1,0,100,0,100,0,0,-1,1,5,0,42,32,3572,5,2101,1,-58,6,-13,0,-3,3,0,18242,2571,1158,37,12984,-6124,287,5838,-4,0,0,-47,0,605483,0
605488,115,-2041,284,-42,-12,51,12996,5,-7,46,16,35080,16,39,127,0,0,1,0,1,0,100,0,100,0,0,-1,1,5,0,44,32,3572,0,2103,1,-59,6,-13,0,-3,3,0,18242,2571,1158,77,12984,-6124,287,5848,-4,0,0,-47,0,605483,0
605498,135,-2051,293,-36,-17,66,12996,-6,-7,51,16,35070,-4,39,127,0,0,1,0,1,0,100,0,100,0,0,-1,2,5,0,47,33,3579,87,2104,2,-61,6,-13,0,-3,3,0,18277,2571,1158,86,12984,-6124,287,5858,-4,0,0,-47,0,605483,0
605508,141,-2051,298,-42,-16,81,12999,2,2,98,80,35068,8,38,127,0,0,1,0,1,0,100,0,100,0,0,-1,2,5,0,49,33,3576,93,2107,2,-61,6,-13,0,-3,3,0,18259,2571,1158,165,12984,-6124,287,5868,-4,0,0,-47,0,605483,0
605518,141,-2052,295,-46,-32,91,13005,15,17,238,88,35064,5,38,127,0,0,1,0,1,0,100,0,100,0,0,-1,2,5,0,52,33,3581,21,2109,2,-62,6,-13,0,-3,3,0,18289,2573,1158,402,12984,-6124,287,5878,-4,0,0,-47,0,605512,0
605528,126,-2053,293,-45,-29,92,13012,2,4,293,120,35078,-9,39,127,0,0,1,0,1,0,100,0,100,0,0,-1,2,5,0,54,33,3582,32,2112,2,-62,6,-13,0,-3,3,0,18294,2574,1158,495,12984,-6124,287,5888,-4,0,0,-47,0,605512,0
605538,112,-2054,287,-43,-20,85,13022,29,-1,317,96,35073,-20,38,127,0,0,1,0,1,0,100,0,100,0,0,-1,1,5,0,57,34,3589,21,2115,2,-62,6,-13,0,-3,3,0,18330,2576,1158,536,12984,-6124,287,5898,-4,0,0,-47,0,605543,0
605548,110,-2054,281,-37,-14,78,13036,26,14,268,96,35071,-20,39,127,0,0,1,0,1,0,100,0,100,0,0,-1,2,5,0,59,34,3588,32,2117,2,-62,6,-13,0,-3,3,0,18324,2579,1158,453,12984,-6124,287,5908,-4,0,0,-47,0,605555,0
605558,121,-2047,278,-38,-22,87,13051,33,6,229,112,35061,-12,39,127,0,0,1,0,1,0,100,0,100,0,0,-1,2,5,0,62,34,3595,104,2120,2,-63,6,-13,0,-3,3,0,18365,2581,1159,387,12984,-6124,287,5918,-4,0,0,-47,0,605557,0
605568,108,-2050,287,-34,-20,79,13064,23,-2,276,88,35063,-7,39,127,0,0,1,0,1,0,100,0,100,0,0,-1,2,5,0,64,35,3592,27,2122,2,-63,6,-13,0,-3,3,0,18348,2584,1158,467,12984,-6124,287,5928,-4,0,0,-47,0,605560,0
605578,101,-2051,302,-31,-19,77,13069,9,-22,329,144,35062,-20,39,127,0,0,1,0,1,0,100,0,100,0,0,-1,3,5,0,67,35,3595,32,2125,2,-63,6,-13,0,-3,3,0,18365,2585,1159,556,12984,-6124,287,5938,-4,0,0,-47,0,605589,0
605588,113,-2055,304,-37,-16,75,13083,43,3,379,144,35070,-26,39,127,0,0,1,0,1,0,100,0,100,0,0,-1,3,5,0,69,35,3601,16,2127,2,-63,6,-13,0,-3,3,0,18395,2588,1159,641,12984,-6124,287,5948,-4,0,0,-47,0,605591,0
605598,130,-2048,303,-41,-14,80,13114,87,63,235,80,35070,-21,38,127,0,0,1,0,1,0,100,0,100,0,0,-1,2,5,0,72,36,3601,32,2129,2,-64,6,-13,0,-3,3,0,18395,2594,1159,397,12984,-6124,287,5958,-4,0,0,-47,0,605591,0
605608,146,-2042,304,-45,-27,93,13139,36,17,192,80,35065,-23,39,127,0,0,1,0,1,0,100,0,100,0,0,-1,2,5,0,74,36,3609,54,2132,2,-64,6,-13,0,-3,3,0,18436,2599,1159,324,12984,-6124,287,5968,-4,0,0,-47,0,605591,0
605618,103,-2045,289,-47,-22,90,13157,40,-34,248,88,35066,-43,39,127,0,0,1,0,1,0,100,0,100,0,0,-1,1,5,1,1,36,3610,38,2134,2,-65,6,-13,0,-3,3,0,18442,2602,1159,419,12984,-6124,287,5978,-4,0,0,-47,0,605661,0
605628,105,-2051,298,-43,-19,85,13185,56,10,128,56,35078,-58,38,127,0,0,1,0,1,0,100,0,100,0,0,-1,1,5,1,3,36,3615,65,2137,2,-64,6,-13,0,-3,3,0,18472,2607,1159,216,12984,-6124,287,5988,-4,0,0,-47,0,605661,0
605638,97,-2045,301,-43,-31,77,13194,-1,-17,259,88,35079,-40,38,127,0,0,1,0,1,0,100,0,100,0,0,-1,1,5,1,6,37,3616,32,2140,2,-64,6,-13,0,-3,3,0,18478,2609,1159,438,12984,-6124,287,5998,-4,0,0,-47,0,605674,0
605648,68,-2057,291,-40,-25,65,13197,7,-54,353,104,35070,-30,39,127,0,0,1,0,1,0,100,0,100,0,0,-1,1,5,1,8,37,3618,16,2142,1,-64,6,-13,0,-3,3,0,18490,2610,1159,597,12984,-6124,287,6008,-4,0,0,-47,0,605675,0
605658,81,-2050,299,-47,-19,45,13205,16,3,378,112,35059,-22,39,127,0,0,1,0,1,0,100,0,100,0,0,-1,1,5,1,11,37,3621,-10,2143,1,-63,6,-13,0,-3,3,0,18501,2611,1159,639,12984,-6124,287,6018,-4,0,0,-47,0,605675,0
605668,87,-2049,302,-41,-19,21,13210,16,8,372,80,35057,-23,39,127,0,0,1,0,1,0,100,0,100,0,0,-1,1,5,1,13,38,3625,27,2144,0,-64,6,-13,0,-3,3,0,18525,2612,1159,629,12984,-6124,287,6028,-4,0,0,-47,0,605675,0
605678,84,-2048,299,-44,-21,18,13216,32,-5,393,112,35058,-1,39,127,0,0,1,0,1,0,100,0,100,0,0,-1,1,5,1,16,38,3623,27,2145,0,-66,6,-13,0,-3,3,0,18513,2614,1159,665,12984,-6124,287,6038,-4,0,0,-47,0,605675,0
605688,106,-2046,303,-50,-15,12,13228,37,13,352,112,35058,6,38,127,0,0,1,0,1,0,100,0,100,0,0,-1,1,5,1,18,38,3625,5,2145,0,-67,6,-13,0,-3,3,0,18525,2616,1159,596,12984,-6124,287,6048,-4,0,0,-47,0,605675,0
605698,107,-2045,311,-53,-21,9,13247,29,26,219,72,35064,9,38,127,0,0,1,0,1,0,100,0,100,0,0,-1,1,5,1,21,39,3625,16,2145,0,-70,6,-13,0,-3,3,0,18525,2620,1159,370,12984,-6124,287,6058,-4,0,0,-47,0,605689,0
605708,107,-2049,301,-53,-33,1,13249,6,-20,274,72,35078,-6,39,127,0,0,1,0,1,0,100,0,100,0,0,-1,2,5,1,23,39,3625,-32,2145,0,-72,6,-13,0,-3,3,0,18525,2620,1159,463,12984,-6124,287,6068,-4,0,0,-47,0,605689,0
605718,116,-2048,304,-59,-23,4,13248,-3,-39,259,96,35088,-15,39,127,0,0,1,0,1,0,100,0,100,0,0,-1,2,5,1,26,39,3627,43,2146,0,-74,6,-13,0,-3,3,0,18537,2620,1159,438,12984,-6124,287,6078,-4,0,0,-47,0,605806,0
605728,124,-2051,300,-61,-26,2,13252,1,-4,272,88,35091,-12,39,127,0,0,1,0,1,0,100,0,100,0,0,-1,2,5,1,28,40,3630,38,2146,0,-76,6,-13,0,-3,3,0,18555,2621,1159,460,12984,-6124,287,6088,-4,0,0,-47,0,605824,0
605738,107,-2049,290,-61,-29,14,13254,4,3,308,56,35073,-11,39,127,0,0,1,0,1,0,100,0,100,0,0,-1,3,5,1,31,40,3628,5,2146,0,-78,6,-13,0,-3,3,0,18543,2621,1159,521,12984,-6124,287,6098,-4,0,0,-47,0,605827,0
605748,117,-2047,284,-53,-26,6,13255,14,-10,312,80,35067,-30,38,127,0,0,1,0,1,0,100,0,100,0,0,-1,2,5,1,33,40,3630,5,2146,0,-80,6,-13,0,-3,3,0,18555,2621,1159,528,12984,-6124,287,6108,-4,0,0,-47,0,605827,0
605758,101,-2051,291,-49,-27,14,13255,4,0,316,80,35064,-26,38,127,0,0,1,0,1,0,100,0,100,0,0,-1,2,5,1,36,41,3627,-16,2147,0,-82,6,-13,0,-3,3,0,18537,2621,1159,535,12984,-6124,287,6118,-4,0,0,-47,0,605827,0
605768,101,-2043,298,-51,-22,12,13255,8,-3,292,104,35074,-36,38,127,0,0,1,0,1,0,100,0,100,0,0,-1,1,5,1,38,41,3629,32,2147,0,-84,6,-13,0,-3,3,0,18549,2621,1159,494,12984,-6124,287,6128,-4,0,0,-47,0,605839,0
605778,114,-2047,292,-47,-25,7,13259,5,5,321,120,35074,-26,38,127,0,0,1,0,1,0,100,0,100,0,0,-1,1,5,1,41,41,3628,27,2147,0,-85,6,-13,0,-3,3,0,18543,2622,1159,543,12984,-6124,287,6138,-4,0,0,-47,0,605839,0
605788,114,-2055,283,-40,-24,11,13258,-6,0,319,120,35064,-23,39,127,0,0,1,0,1,0,100,0,100,0,0,-1,1,5,1,43,42,3632,32,2148,0,-87,6,-13,0,-3,3,0,18561,2622,1159,540,12984,-6124,287,6148,-4,0,0,-47,0,605839,0
605798,111,-2046,294,-40,-22,3,13263,7,-3,349,112,35058,-21,39,127,0,0,1,0,1,0,100,0,100,0,0,-1,1,5,1,46,42,3635,32,2148,0,-89,6,-13,0,-3,3,0,18578,2623,1160,591,12984,-6124,287,6158,-4,0,0,-47,0,605839,0
605808,91,-2051,301,-48,-25,-2,13265,7,1,371,104,35058,-15,38,127,0,0,1,0,1,0,100,0,100,0,0,-1,1,5,1,48,42,3632,10,2148,0,-91,6,-13,0,-3,3,0,18561,2623,1159,628,12984,-6124,287,6168,-4,0,0,-47,0,605839,0
605818,99,-2050,304,-43,-27,-5,13265,0,0,338,104,35067,-20,38,127,0,0,1,0,1,0,100,0,100,0,0,-1,1,5,1,51,42,3632,16,2148,0,-93,6,-13,0,-3,3,0,18561,2623,1159,572,12984,-6124,287,6178,-4,0,0,-47,0,605839,0
605828,95,-2051,303,-45,-25,-4,13265,-6,-13,349,128,35068,-22,38,127,0,0,1,0,1,0,100,0,100,0,0,-1,1,5,1,53,43,3630,5,2148,0,-95,6,-13,0,-3,3,0,18555,2623,1159,591,12984,-6124,287,6188,-4,0,0,-47,0,605839,0
605838,106,-2052,302,-46,-26,-11,13268,1,4,345,104,35058,-37,39,127,0,0,1,0,1,0,100,0,100,0,0,-1,1,5,1,56,43,3635,32,2147,0,-97,6,-13,0,-3,3,0,18578,2624,1160,584,12984,-6124,287,6198,-4,0,0,-47,0,605839,0
605848,88,-2047,296,-51,-22,-13,13274,20,5,383,112,35058,-28,38,127,0,0,1,0,1,0,100,0,100,0,0,-1,1,5,1,58,43,3634,5,2147,0,-99,6,-13,0,-3,3,0,18572,2625,1160,648,12984,-6124,287,6208,-4,0,0,-47,0,605855,0
605858,121,-2051,299,-50,-27,-18,13278,6,4,317,104,35070,-18,39,127,0,0,1,0,1,0,100,0,100,0,0,-1,1,5,1,61,44,3630,0,2146,0,-101,6,-13,0,-3,3,0,18555,2626,1159,536,12984,-6124,287,6218,-4,0,0,-47,0,605857,0
605868,115,-2043,299,-50,-28,-27,13284,10,2,253,72,35096,-4,39,127,0,0,1,0,1,0,100,0,100,0,0,-1,2,5,1,63,44,3635,5,2146,0,-104,6,-13,0,-3,3,0,18578,2627,1160,428,12984,-6124,287,6228,-4,0,0,-47,0,605857,0
605878,110,-2050,299,-41,-28,-17,13289,9,3,265,80,35105,-11,39,127,0,0,1,0,1,0,100,0,100,0,0,-1,1,5,1,66,44,3634,27,2145,0,-107,6,-13,0,-3,3,0,18572,2628,1160,448,12984,-6124,287,6238,-4,0,0,-47,0,605857,0
605888,108,-2047,297,-42,-31,-16,13304,20,15,107,80,35096,-4,39,127,0,0,1,0,1,0,100,0,100,0,0,-1,2,5,1,68,45,3633,54,2145,0,-109,6,-13,0,-3,3,0,18567,2631,1159,181,12984,-6124,287,6248,-4,0,0,-47,0,605895,0
605898,130,-2051,295,-43,-23,-25,13310,1,-7,88,16,35086,-28,39,127,0,0,1,0,1,0,100,0,100,0,0,-1,2,5,1,71,45,3632,-5,2144,0,-111,6,-13,0,-3,3,0,18561,2632,1159,149,12984,-6124,287,6258,-4,0,0,-47,0,605905,0
605908,100,-2052,298,-36,-26,-30,13305,-12,-33,61,24,35066,-25,38,127,0,0,1,0,1,0,100,0,100,0,0,-1,1,5,1,73,45,3635,60,2143,0,-113,6,-13,0,-3,3,0,18578,2631,1160,103,12984,-6124,287,6268,-4,0,0,-47,0,605907,0
605918,107,-2040,305,-38,-19,-29,13309,-4,-10,92,40,35061,-41,38,127,0,0,1,1,1,0,100,100,100,0,0,-1,1,5,1,76,46,3634,32,2142,0,-116,6,-13,0,-3,3,0,18572,2632,1160,155,12984,-6124,287,6278,-4,0,0,-47,0,605907,0
605928,93,-2053,301,-39,-28,-28,13310,2,0,88,16,35055,-25,38,127,0,0,1,0,1,0,100,0,100,0,0,-1,3,5,2,1,46,3632,0,2142,0,-118,6,-13,0,-3,3,0,18561,2632,1159,149,12984,-6124,287,6288,-4,0,0,-47,0,605940,0
605938,94,-2051,294,-39,-29,-36,13310,13,-11,90,16,35065,-34,38,127,0,0,1,0,1,0,100,0,100,0,0,-1,1,5,2,4,46,3632,-21,2141,-1,-121,6,-13,0,-3,3,0,18561,2632,1159,152,12984,-6124,287,6298,-4,0,0,-47,0,605941,0
605948,112,-2044,295,-36,-27,-44,13309,-3,5,58,16,35063,-34,38,127,0,0,1,0,1,0,100,0,100,0,0,-1,1,5,2,6,46,3635,32,2139,-1,-124,6,-13,0,-3,3,0,18578,2632,1160,98,12984,-6124,287,6308,-4,0,0,-47,0,605945,0
605958,107,-2052,294,-26,-30,-35,13310,3,3,92,16,35058,-26,38,127,0,0,1,0,1,0,100,0,100,0,0,-1,2,5,2,9,47,3635,27,2138,-1,-126,6,-13,0,-3,3,0,18578,2632,1160,155,12984,-6124,287,6318,-4,0,0,-47,0,605946,0
605968,74,-2048,291,-26,-30,-38,13311,11,5,99,16,35055,-18,38,127,0,0,1,0,1,0,100,0,100,0,0,-1,1,5,1,11,47,3632,-5,2137,-1,-129,6,-13,0,-3,3,0,18561,2632,1159,167,12984,-6124,287,6328,-4,0,0,-47,0,605957,0
605978,99,-2053,284,-24,-27,-46,13309,0,-7,69,16,35067,-17,38,127,0,0,1,0,1,0,100,0,100,0,0,-1,1,5,1,14,47,3638,60,2136,-1,-132,6,-13,0,-3,3,0,18596,2632,1160,116,12984,-6124,287,6338,-4,0,0,-47,0,605960,0
605988,105,-2049,298,-22,-26,-50,13309,-10,6,73,16,35070,-30,39,127,0,0,1,0,1,0,100,0,100,0,0,-1,1,5,1,16,47,3628,-21,2134,-1,-135,6,-13,0,-3,3,0,18543,2632,1159,123,12984,-6124,287,6348,-4,0,0,-47,0,605973,0
605998,130,-2053,301,-17,-24,-49,13308,7,-2,21,24,35072,-29,39,127,0,0,1,0,1,0,100,0,100,0,0,-1,2,5,1,19,48,3628,-10,2133,-1,-138,6,-13,0,-3,3,0,18543,2631,1159,35,12984,-6124,287,6358,-4,0,0,-47,0,606007,0
606008,121,-2043,304,-20,-29,-47,13310,0,-2,65,-8,35075,-26,39,127,0,0,1,0,1,0,100,0,100,0,0,-1,1,5,1,21,48,3633,-32,2131,-1,-141,6,-13,0,-3,3,0,18567,2632,1159,110,12984,-6124,287,6368,-4,0,0,-47,0,606007,0
606018,84,-2043,300,-21,-33,-43,13308,-7,-2,21,0,35066,-11,38,127,0,0,1,0,1,0,100,0,100,0,0,-1,1,5,1,24,48,3629,10,2130,-1,-144,6,-13,0,-3,3,0,18549,2631,1159,35,12984,-6124,287,6378,-4,0,0,-47,0,606007,0
606028,109,-2043,302,-15,-28,-55,13307,-3,2,0,0,35056,-8,38,127,0,0,1,0,1,0,100,0,100,0,0,-1,1,5,1,26,49,3629,0,2128,-1,-147,6,-13,0,-3,3,0,18549,2631,1159,0,12984,-6124,287,6388,-4,0,0,-47,0,606007,0
606038,121,-2047,301,-16,-28,-51,13305,-11,0,-67,-24,35048,-10,38,127,0,0,1,0,1,0,100,0,100,0,0,-1,1,5,1,29,49,3627,10,2127,-1,-150,6,-13,0,-3,3,0,18537,2631,1159,0,12984,-6124,287,6398,-4,0,0,-47,0,606039,0
606048,108,-2046,297,-20,-29,-53,13305,4,-3,-75,-16,35067,-18,39,127,0,0,1,0,1,0,100,0,100,0,0,-1,1,5,1,31,49,3630,5,2125,-1,-154,6,-13,0,-3,3,0,18555,2631,1159,0,12984,-6124,287,6408,-4,0,0,-47,0,606039,0
606058,99,-2050,299,-9,-36,-52,13306,3,5,-8,8,35067,-23,39,127,0,0,1,0,1,0,100,0,100,0,0,-1,1,5,1,34,50,3629,0,2124,-1,-157,6,-13,0,-3,3,0,18549,2631,1159,0,12984,-6124,287,6418,-4,0,0,-47,0,606039,0
606068,98,-2048,305,-16,-35,-49,13305,-8,-4,-65,-16,35062,-24,38,127,0,0,1,0,1,0,100,0,100,0,0,-1,1,5,1,36,50,3627,10,2122,-1,-160,6,-13,0,-3,3,0,18537,2631,1159,0,12984,-6124,287,6428,-4,0,0,-47,0,606057,0
606078,99,-2053,305,-10,-30,-63,13306,11,2,-53,0,35051,-20,39,127,0,0,1,0,1,0,100,0,100,0,0,-1,2,5,1,39,50,3626,5,2120,-1,-163,6,-13,0,-3,3,0,18531,2631,1159,0,12984,-6124,287,6438,-4,0,0,-47,0,606057,0
606088,110,-2047,307,-4,-26,-72,13303,-19,-4,-118,-56,35049,-24,38,127,0,0,1,0,1,0,100,0,100,0,0,-1,3,5,1,41,50,3626,-21,2118,-2,-166,6,-13,0,-3,3,0,18531,2630,1159,0,12984,-6124,287,6448,-4,0,0,-47,0,606090,0
606098,98,-2053,300,-8,-12,-85,13298,5,-16,-156,-72,35052,-18,38,127,0,0,1,0,1,0,100,0,100,0,0,-1,2,5,1,44,51,3621,-71,2116,-2,-170,6,-13,0,-3,3,0,18501,2629,1159,0,12984,-6124,287,6458,-4,0,0,-47,0,606093,0
606108,125,-2043,300,-8,-15,-78,13287,-37,-12,-250,-56,35046,-15,38,127,0,0,1,0,1,0,100,0,100,0,0,-1,2,5,1,46,51,3617,-32,2113,-2,-174,6,-13,0,-3,3,0,18484,2627,1159,0,12984,-6124,287,6468,-4,0,0,-47,0,606117,0
606118,155,-2071,326,-5,-10,-72,13270,-48,-32,-211,-72,35055,-9,38,127,0,0,1,0,1,0,100,0,100,0,0,-1,1,5,1,49,51,3619,-27,2111,-2,-178,6,-13,0,-3,3,0,18496,2624,1159,0,12984,-6124,287,6478,-4,0,0,-47,0,606119,0
606128,95,-2052,291,-8,-23,-68,13245,-24,-27,2,-16,35048,-12,38,127,0,0,1,0,1,0,100,0,100,0,0,-1,2,5,1,51,51,3613,-65,2109,-2,-181,6,-13,0,-3,3,0,18460,2619,1159,3,12984,-6124,287,6488,-4,0,0,-47,0,606119,0
606138,137,-2050,303,-5,-21,-62,13242,-11,42,-177,-32,35049,-16,38,127,0,0,1,0,1,0,100,0,100,0,0,-1,1,5,1,54,52,3614,0,2107,-1,-184,6,-13,0,-3,3,0,18466,2619,1159,0,12984,-6124,287,6498,-4,0,0,-47,0,606141,0
606148,130,-2051,309,-4,-21,-66,13239,0,33,-137,-32,35046,-15,38,127,0,0,1,0,1,0,100,0,100,0,0,-1,2,5,1,56,52,3611,-38,2105,-2,-188,6,-13,0,-3,3,0,18448,2618,1159,0,12984,-6124,287,6508,-4,0,0,-47,0,606157,0
606158,120,-2039,312,3,-20,-50,13239,-1,8,-179,-32,35048,-7,38,127,0,0,1,0,1,0,100,0,100,0,0,-1,2,5,1,59,52,3611,-38,2103,-1,-191,6,-13,0,-3,3,0,18448,2618,1159,0,12984,-6124,287,6518,-4,0,0,-47,0,606157,0
606168,107,-2047,310,2,-25,-61,13237,2,-1,-182,-48,35049,-7,38,127,0,0,1,0,1,0,100,0,100,0,0,-1,1,5,1,61,53,3612,-27,2102,-1,-194,6,-13,0,-3,3,0,18454,2618,1159,0,12984,-6124,287,6528,-4,0,0,-47,0,606157,0
606178,110,-2039,309,2,-22,-65,13233,-9,-3,-194,-40,35045,-1,38,127,0,0,1,0,1,0,100,0,100,0,0,-1,1,5,1,64,53,3612,0,2100,-1,-197,6,-13,0,-3,3,0,18454,2617,1159,0,12984,-6124,287,6538,-4,0,0,-47,0,606173,0
606188,117,-2056,318,6,-15,-66,13230,-10,-3,-216,-56,35044,12,39,127,0,0,1,0,1,0,100,0,100,0,0,-1,1,5,1,66,53,3610,32,2098,-2,-200,6,-13,0,-3,3,0,18442,2616,1159,0,12984,-6124,287,6548,-4,0,0,-47,0,606173,0
606198,77,-2076,297,1,-28,-74,13221,-20,-13,-221,-64,35059,17,39,127,0,0,1,0,1,0,100,0,100,0,0,-1,2,5,1,69,54,3611,16,2096,-2,-203,6,-13,0,-3,3,0,18448,2614,1159,0,12984,-6124,287,6558,-4,0,0,-47,0,606208,0
606208,89,-2062,305,-2,-23,-87,13204,-44,-25,-142,-56,35058,28,38,127,0,0,1,0,1,0,100,0,100,0,0,-1,2,5,1,71,54,3605,-5,2093,-2,-206,6,-13,0,-3,3,0,18419,2611,1159,0,12984,-6124,287,6568,-4,0,0,-47,0,606208,0
606218,79,-2052,319,6,-7,-111,13184,-27,-22,-114,-56,35055,27,38,127,0,0,1,0,1,0,100,0,100,0,0,-1,2,5,1,74,54,3601,-32,2090,-3,-210,6,-13,0,-3,3,0,18395,2607,1159,0,12984,-6124,287,6578,-4,0,0,-47,0,606208,0
606228,121,-2051,321,6,-22,-110,13182,-4,36,-212,-56,35046,22,38,127,0,0,1,0,1,0,100,0,100,0,1,-1,2,5,1,1,54,3601,0,2086,-3,-214,6,-13,0,-3,3,0,18395,2607,1159,0,12984,-6124,287,6588,-4,0,0,-47,0,606225,0
606238,105,-2043,329,1,-24,-119,13181,-7,29,-279,-80,35045,-2,39,127,0,0,1,0,1,0,100,0,100,0,0,-1,1,5,2,3,55,3592,-49,2083,-3,-219,6,-13,0,-3,3,0,18348,2607,1158,0,12984,-6124,287,6598,-4,0,0,-47,0,606225,0
606248,105,-2054,315,6,-21,-123,13168,-38,-27,-392,-120,35060,-16,38,127,0,0,1,0,1,0,100,0,100,0,0,-1,3,5,2,5,55,3592,-16,2079,-3,-223,6,-13,0,-3,3,0,18348,2604,1158,0,12984,-6124,287,6608,-4,0,0,-47,0,606290,0
606258,142,-2066,319,7,-4,-128,13155,-22,-24,-345,-96,35067,-23,38,127,0,0,1,0,1,0,100,0,100,0,0,-1,2,5,2,8,55,3585,-65,2075,-3,-228,6,-13,0,-3,3,0,18312,2602,1158,0,12984,-6124,287,6618,-4,0,0,-47,0,606295,0
606268,145,-2029,325,8,-20,-108,13134,-67,-19,-363,-128,35067,-16,38,127,0,0,1,0,1,0,100,0,100,0,0,-1,3,5,2,10,56,3585,-32,2072,-3,-234,6,-13,0,-3,3,0,18312,2598,1158,0,12984,-6124,287,6628,-4,0,0,-47,0,606296,0
606278,133,-2059,297,-8,-20,-111,13102,-55,-39,-272,-80,35057,-7,38,127,0,0,1,0,1,0,100,0,100,0,0,-1,1,5,1,13,56,3583,-16,2068,-3,-239,6,-13,0,-3,3,0,18300,2591,1158,0,12984,-6124,287,6638,-4,0,0,-47,0,606296,0
606288,131,-2063,308,-4,-24,-97,13086,-34,24,-285,-72,35048,-19,39,127,0,0,1,0,1,0,100,0,100,0,0,-1,1,5,0,15,56,3584,43,2065,-2,-243,6,-13,0,-3,3,0,18306,2588,1158,0,12984,-6124,287,6648,-4,0,0,-47,0,606296,0
606298,142,-2047,313,12,-26,-83,13065,-47,20,-115,-80,35048,-16,38,127,0,0,1,0,1,0,100,0,100,0,0,-1,3,5,0,18,57,3577,-65,2062,-2,-247,6,-13,0,-3,3,0,18265,2584,1158,0,12984,-6124,287,6658,-4,0,0,-47,0,606296,0
606308,159,-2061,308,10,-14,-80,13043,-50,-10,-159,-32,35046,-16,39,127,0,0,1,0,1,0,100,0,100,0,0,-1,2,5,0,20,57,3577,0,2060,-2,-251,6,-13,0,-3,3,0,18265,2580,1158,0,12984,-6124,287,6668,-4,0,0,-47,0,606296,0
606318,94,-2045,286,13,-27,-80,13037,-5,26,-182,-64,35047,-4,38,127,0,0,1,0,1,0,100,0,100,0,0,-1,2,5,0,23,57,3572,-27,2057,-2,-254,6,-13,0,-3,3,0,18242,2579,1158,0,12984,-6124,287,6678,-4,0,0,-47,0,606307,0
606328,137,-2055,303,25,-12,-91,13027,-32,17,-214,-64,35061,-6,38,127,0,0,1,0,1,0,100,0,100,0,0,-1,1,5,0,25,57,3570,-32,2055,-2,-258,6,-13,0,-3,3,0,18230,2577,1158,0,12984,-6124,287,6688,-4,0,0,-47,0,606324,0
606338,104,-2042,323,31,-14,-99,13007,-48,-31,-102,-48,35070,-8,39,127,0,0,1,0,1,0,100,0,100,0,0,-1,0,5,0,28,58,3565,-98,2052,-3,-262,6,-13,0,-3,3,0,18201,2573,1158,0,12984,-6124,287,6698,-4,0,0,-47,0,606324,0
606348,141,-2038,320,32,-22,-105,12993,-22,-8,-89,-24,35074,-2,39,127,0,0,1,0,1,0,100,0,100,0,0,-1,2,5,0,30,58,3565,-71,2049,-3,-266,6,-13,0,-3,3,0,18201,2570,1158,0,12984,-6124,287,6708,-4,0,0,-47,0,606340,0
606358,128,-2039,328,32,-17,-109,12994,0,36,-146,-88,35067,3,39,127,0,0,1,0,1,0,100,0,100,0,0,-1,2,5,0,33,58,3565,-76,2045,-3,-269,6,-13,0,-3,3,0,18201,2570,1158,0,12984,-6124,287,6718,-4,0,0,-47,0,606340,0
606368,127,-2039,324,30,-20,-119,12987,-19,6,-227,-80,35062,9,38,127,0,0,1,0,1,0,100,0,100,0,0,-1,2,5,0,35,58,3561,-5,2042,-3,-274,6,-13,0,-3,3,0,18184,2569,1158,0,12984,-6124,287,6728,-4,0,0,-47,0,606373,0
606378,140,-2041,326,37,-14,-119,12982,-16,-13,-308,-88,35068,4,39,127,0,0,1,0,1,0,100,0,100,0,0,-1,1,5,0,38,59,3556,-21,2038,-3,-278,6,-13,0,-3,3,0,18155,2568,1158,0,12984,-6124,287,6738,-4,0,0,-47,0,606390,0
606388,168,-2067,351,46,-6,-129,12979,-8,3,-350,-128,35060,1,39,127,0,0,1,0,1,0,100,0,100,0,0,-1,1,5,0,40,59,3558,-5,2034,-3,-283,6,-13,0,-3,3,0,18167,2567,1158,0,12984,-6124,287,6748,-4,0,0,-47,0,606391,0
606398,121,-2027,308,38,-11,-133,12973,-25,-1,-435,-136,35057,1,39,127,0,0,1,0,1,0,100,0,100,0,0,-1,2,5,0,43,59,3549,21,2030,-4,-288,6,-13,0,-3,3,0,18121,2566,1157,0,12984,-6124,287,6758,-4,0,0,-47,0,606391,0
606408,151,-2039,296,46,5,-145,12953,-45,-32,-400,-160,35057,10,39,127,0,0,1,0,1,0,100,0,100,0,0,-1,2,5,0,45,60,3546,-54,2026,-4,-293,6,-13,0,-3,3,0,18103,2562,1157,0,12984,-6124,287,6768,-4,0,0,-47,0,606391,0
606418,175,-2000,297,68,-16,-120,12919,-80,-50,-330,-120,35066,16,38,127,0,0,1,0,1,0,100,0,100,0,0,-1,1,5,0,48,60,3537,-49,2022,-3,-299,6,-13,0,-3,3,0,18057,2556,1157,0,12984,-6124,287,6778,-4,0,0,-47,0,606406,0
606428,145,-2021,302,61,-17,-107,12889,-69,-25,-361,-144,35075,4,39,127,0,0,1,0,1,0,100,0,100,0,0,-1,4,5,0,50,60,3538,-16,2018,-3,-304,6,-13,0,-3,3,0,18063,2550,1157,0,12984,-6124,287,6788,-4,0,0,-47,0,606423,0
606438,143,-2036,321,81,-30,-131,12843,-110,-27,-164,-96,35070,2,39,127,0,0,1,0,1,0,100,0,100,0,0,-1,3,5,0,53,60,3531,-49,2015,-3,-309,6,-13,0,-3,3,0,18023,2541,1157,0,12984,-6124,287,6798,-4,0,0,-47,0,606430,0
606448,75,-2045,317,76,-25,-116,12803,-100,-17,-149,-64,35068,6,39,127,0,0,1,0,1,0,100,0,100,0,0,-1,1,5,0,55,60,3526,-27,2011,-3,-312,6,-13,0,-3,3,0,18000,2533,1157,0,12984,-6124,287,6808,-4,0,0,-47,0,606441,0
606458,22,-2055,346,84,-24,-171,12776,-45,36,-200,-80,35074,13,39,127,0,0,1,0,1,0,100,0,100,0,0,-1,3,5,0,58,61,3516,-43,2007,-5,-316,6,-13,0,-3,3,0,17948,2528,1157,0,12984,-6124,287,6818,-4,0,0,-47,0,606441,0
606468,49,-2083,357,98,-53,-209,12764,-24,61,-320,-120,35075,9,39,127,0,0,1,0,1,0,100,0,100,0,0,-1,3,5,0,60,61,3513,-76,2001,-6,-320,6,-13,0,-3,3,0,17931,2526,1157,0,12984,-6124,287,6828,-4,0,0,-47,0,606459,0
606478,9,-2008,304,82,-8,-306,12732,-82,-19,-297,-120,35068,13,39,127,0,0,1,0,1,0,100,0,100,0,0,-1,1,5,0,63,61,3503,-76,1993,-9,-326,6,-13,0,-3,3,0,17879,2520,1156,0,12984,-6124,287,6838,-4,0,0,-47,0,606473,0
606488,13,-2042,355,77,-1,-358,12697,-75,-40,-369,-184,35062,27,39,127,0,0,1,0,1,0,100,0,100,0,0,-1,1,5,0,65,61,3490,-131,1982,-10,-333,6,-13,0,-3,3,0,17809,2513,1156,0,12984,-6124,287,6848,-4,0,0,-47,0,606473,0
606498,62,-2026,338,79,-23,-427,12644,-139,-43,-344,-192,35065,34,39,127,0,0,1,0,1,0,100,0,100,0,0,-1,1,5,0,68,61,3479,-120,1970,-13,-343,6,-13,0,-3,3,0,17752,2502,1156,0,12984,-6124,287,6858,-4,0,0,-47,0,606527,0
606508,38,-2049,334,82,-17,-471,12572,-172,-82,-291,-176,35070,25,39,127,0,0,1,0,1,0,100,0,100,0,0,-1,2,5,0,70,62,3462,-142,1956,-14,-355,6,-13,0,-3,3,0,17665,2488,1155,0,12984,-6124,287,6868,-4,0,0,-47,0,606527,0
606518,60,-2044,395,76,0,-564,12502,-144,-25,-325,-192,35060,5,38,127,0,0,1,0,1,0,100,0,100,0,0,-1,2,5,0,73,62,3447,-159,1940,-17,-368,6,-13,0,-3,3,0,17585,2475,1155,0,12984,-6124,287,6878,-4,0,0,-47,0,606527,0
606528,118,-2039,400,50,2,-584,12429,-170,4,-374,-248,35057,8,38,127,0,0,1,0,1,0,100,0,100,0,0,-1,5,5,0,75,62,3427,-192,1923,-17,-384,6,-13,0,-3,3,0,17481,2460,1155,0,12984,-6124,287,6888,-4,0,0,-47,0,606527,0
606538,152,-2026,355,35,3,-607,12338,-198,-47,-312,-264,35053,8,39,127,0,0,1,0,1,0,100,0,100,0,0,-1,2,5,0,78,63,3411,-197,1904,-18,-403,6,-13,0,-3,3,0,17395,2442,1154,0,12984,-6124,287,6898,-4,0,0,-47,0,606541,0
606548,204,-2028,333,45,2,-599,12239,-224,-45,-283,-224,35059,6,39,127,0,0,1,0,1,0,100,0,100,0,0,-1,2,5,0,80,63,3395,-148,1886,-18,-422,6,-13,0,-3,3,0,17314,2423,1154,0,12984,-6124,287,6908,-4,0,0,-47,0,606541,0
606558,198,-2027,312,54,-1,-594,12142,-199,-6,-267,-256,35063,11,39,127,0,0,1,0,1,0,100,0,100,0,0,-1,3,5,0,83,63,3373,-175,1867,-18,-442,6,-13,0,-3,3,0,17199,2404,1154,0,12984,-6124,287,6918,-4,0,0,-47,0,606541,0
606568,243,-2025,327,55,9,-578,12053,-205,27,-297,-264,35070,9,39,127,0,0,1,0,1,0,100,0,100,0,0,-1,2,5,0,85,64,3353,-236,1850,-17,-462,6,-13,0,-3,3,0,17090,2386,1153,0,12984,-6124,287,6928,-4,0,0,-47,0,606580,0
606578,256,-2003,295,87,3,-546,11957,-212,-6,-342,-256,35078,9,38,127,0,0,1,0,1,0,100,0,100,0,0,-1,1,5,0,88,64,3335,-181,1833,-16,-481,6,-13,0,-3,3,0,16998,2367,1153,0,12984,-6124,287,6938,-4,0,0,-47,0,606582,0
606588,240,-2006,262,100,11,-523,11862,-210,-11,-276,-248,35072,3,38,127,0,0,1,0,1,0,100,0,100,0,0,-1,1,5,0,90,64,3321,-208,1816,-15,-499,6,-13,0,-3,3,0,16924,2349,1152,0,12984,-6124,287,6948,-4,0,0,-47,0,606584,0
606598,260,-2001,303,135,34,-499,11764,-212,-2,-251,-216,35063,-2,39,127,0,0,1,0,1,0,100,0,100,0,0,-1,1,5,0,93,64,3305,-181,1801,-15,-517,6,-13,0,-3,3,0,16844,2329,1152,0,12984,-6124,287,6958,-4,0,0,-47,0,606591,0
606608,292,-2018,293,155,29,-460,11685,-157,35,-301,-200,35063,-2,39,127,0,0,1,0,1,0,100,0,100,0,0,-1,1,5,0,95,65,3292,-115,1787,-14,-533,6,-13,0,-3,3,0,16775,2314,1152,0,12984,-6124,287,6968,-4,0,0,-47,0,606614,0
606618,287,-1993,347,171,29,-403,11604,-179,34,-278,-200,35071,-4,39,127,0,0,1,0,1,0,100,0,100,0,0,-1,2,5,0,98,65,3280,-98,1774,-12,-550,6,-13,0,-3,3,0,16712,2298,1152,0,12984,-6124,287,6978,-4,0,0,-47,0,606614,0
606628,255,-2005,358,172,29,-379,11531,-137,11,-251,-144,35076,3,39,127,0,0,1,0,1,0,100,0,100,0,0,-1,2,5,0,100,65,3268,-109,1762,-11,-564,6,-13,0,-3,3,0,16649,2283,1151,0,12984,-6124,287,6988,-4,0,0,-47,0,606614,0
606638,230,-2032,404,168,24,-350,11485,-97,74,-350,-144,35071,4,39,127,0,0,1,0,1,0,100,0,100,0,0,-1,2,5,0,103,65,3259,-82,1751,-10,-577,6,-13,0,-3,3,0,16603,2274,1151,0,12984,-6124,287,6998,-4,0,0,-47,0,606640,0
606648,220,-2015,424,157,28,-363,11421,-150,7,-259,-136,35075,-19,38,127,0,0,1,0,1,0,100,0,100,0,0,-1,3,5,0,105,65,3248,-76,1740,-11,-588,6,-13,0,-3,3,0,16546,2262,1151,0,12984,-6124,287,7008,-4,0,0,-47,0,606641,0
606658,213,-1997,378,182,35,-378,11357,-115,-44,-200,-120,35076,-19,39,127,0,0,1,0,1,0,100,0,100,0,0,-1,2,5,0,108,65,3237,-71,1729,-11,-599,6,-13,0,-3,3,0,16489,2249,1151,0,12984,-6124,287,7018,-4,0,0,-47,0,606657,0
606668,232,-2006,373,148,67,-360,11314,-73,52,-246,-128,35082,-6,39,127,0,0,1,0,1,0,100,0,100,0,0,-1,2,6,0,110,65,3228,-131,1718,-10,-611,6,-13,0,-3,3,0,16443,2240,1150,0,12984,-6124,287,7028,-4,0,0,-47,0,606657,0
606678,324,-2044,433,155,43,-335,11285,-79,70,-386,-208,35069,15,39,127,0,0,1,0,1,0,100,0,100,0,0,-1,3,6,0,113,65,3222,-54,1707,-10,-623,6,-13,0,-3,3,0,16409,2235,1150,0,12984,-6124,287,7038,-4,0,0,-47,0,606657,0
606688,338,-1998,417,136,20,-310,11224,-143,-42,-321,-152,35062,12,39,127,0,0,1,0,1,0,100,0,100,0,0,-1,2,6,0,115,65,3205,-93,1697,-9,-636,6,-13,0,-3,3,0,16323,2223,1150,0,12984,-6124,287,7048,-4,0,0,-47,0,606690,0
606698,286,-2004,424,118,22,-281,11155,-139,-80,-220,-112,35064,13,39,127,0,0,1,0,1,0,100,0,100,0,0,-1,2,6,0,118,66,3200,-76,1688,-8,-647,6,-13,0,-3,3,0,16294,2209,1150,0,12984,-6124,287,7058,-4,0,0,-47,0,606690,0
606708,265,-2023,429,113,36,-268,11112,-71,36,-218,-112,35066,15,39,127,0,0,1,0,1,0,100,0,100,0,0,-1,1,6,0,120,66,3191,-137,1680,-8,-656,6,-13,0,-3,3,0,16248,2200,1150,0,12984,-6124,287,7068,-4,0,0,-47,0,606690,0
606718,313,-2004,426,72,53,-249,11094,-50,110,-404,-176,35074,20,39,127,0,0,1,0,1,0,100,0,100,0,0,-1,1,7,0,123,67,3186,-87,1672,-7,-665,6,-13,0,-3,3,0,16220,2197,1149,0,12984,-6124,287,7078,-4,0,0,-47,0,606708,0
606728,366,-2021,389,60,49,-208,11050,-114,-5,-301,-152,35073,9,38,127,0,0,1,0,1,0,100,0,100,0,0,-1,3,7,0,125,67,3179,-49,1665,-6,-675,6,-13,0,-3,3,0,16185,2189,1149,0,12984,-6124,287,7088,-4,0,0,-47,0,606708,0
606738,390,-2028,335,76,2,-103,10998,-126,-64,-244,-64,35071,-7,38,127,0,0,1,0,1,0,100,0,100,0,0,-1,2,7,0,128,67,3173,0,1660,-3,-683,6,-13,0,-3,3,0,16158,2179,1149,0,12984,-6124,287,7098,-4,0,0,-47,0,606740,0
606748,341,-2035,370,97,-2,-52,10971,-29,32,-174,-32,35068,-11,38,127,0,0,1,0,1,0,100,0,100,0,0,-1,2,7,0,130,68,3175,5,1658,-1,-688,6,-13,0,-3,3,0,16163,2173,1149,0,12984,-6124,287,7108,-4,0,0,-47,0,606740,0
606758,340,-2000,379,101,-5,-16,10977,5,121,-232,-48,35065,-3,38,127,0,0,1,0,1,0,100,0,100,0,0,-1,1,8,0,133,68,3175,27,1657,0,-692,6,-13,0,-3,3,0,16163,2174,1149,0,12984,-6124,287,7118,-4,0,0,-47,0,606757,0
606768,279,-2005,406,95,-1,-8,10977,8,41,-178,-48,35065,-7,39,127,0,0,1,0,1,0,100,0,100,0,0,-1,1,8,0,135,68,3175,-16,1657,0,-693,6,-13,0,-3,3,0,16163,2174,1149,0,12984,-6124,287,7128,-4,0,0,-47,0,606759,0
606778,283,-2021,379,102,10,5,10975,-7,-8,-235,-40,35060,-9,39,127,0,0,1,0,1,0,100,0,100,0,1,-1,1,8,2,1,69,3175,16,1657,0,-694,6,-13,0,-3,3,0,16163,2174,1149,0,12984,-6124,287,7138,-4,0,0,-47,0,606790,0
606788,279,-2012,350,108,-9,15,10977,4,6,-208,-64,35068,-11,39,127,0,0,1,0,1,0,100,0,100,0,0,-1,1,8,1,2,69,3179,27,1657,0,-695,6,-13,0,-3,3,0,16185,2174,1149,0,12984,-6124,287,7148,-4,0,0,-47,0,606792,0
606798,199,-2017,351,130,-16,17,10978,14,8,-128,-24,35065,-16,38,127,0,0,1,0,1,0,100,0,100,0,0,-1,1,8,1,5,69,3177,5,1658,0,-694,6,-13,0,-3,3,0,16174,2175,1149,0,12984,-6124,287,7158,-4,0,0,-47,0,606792,0
606808,186,-2022,421,126,-16,-4,10980,-3,2,-149,-8,35062,-20,39,127,0,0,1,0,1,0,100,0,100,0,0,-1,1,8,1,7,70,3176,5,1658,0,-693,6,-13,0,-3,3,0,16169,2175,1149,0,12984,-6124,287,7168,-4,0,0,-47,0,606792,0
606818,214,-2032,561,80,-1,-41,10979,-8,-4,-186,-32,35057,-27,39,127,0,0,1,0,1,0,100,0,100,0,0,-1,1,8,1,10,70,3177,21,1657,-1,-692,6,-13,0,-3,3,0,16174,2175,1149,0,12984,-6124,287,7178,-4,0,0,-47,0,606807,0
606828,228,-2036,597,23,-16,-46,10980,12,2,-138,-48,35067,-15,39,127,0,0,1,0,1,0,100,0,100,0,0,-1,3,8,1,12,70,3178,-5,1656,-1,-693,6,-13,0,-3,3,0,16180,2175,1149,0,12984,-6124,287,7188,-4,0,0,-47,0,606841,0
606838,243,-2005,502,-36,-59,-44,10979,0,-3,-138,-32,35074,-23,39,127,0,0,1,0,1,0,100,0,100,0,0,-1,3,8,1,15,71,3173,-32,1654,-1,-695,6,-13,0,-3,3,0,16158,2175,1149,0,12984,-6124,287,7198,-4,0,0,-47,0,606841,0
606848,227,-2016,429,-47,-74,-63,10979,0,-4,-179,-32,35069,-13,39,127,0,0,1,0,1,0,100,0,100,0,0,-1,2,8,1,17,71,3177,5,1652,-1,-696,6,-13,0,-3,3,0,16174,2175,1149,0,12984,-6124,287,7208,-4,0,0,-47,0,606841,0
606858,171,-2020,421,-55,-70,-102,10979,-1,8,-168,-32,35060,-17,39,127,0,0,1,0,1,0,100,0,100,0,0,-1,2,8,1,20,72,3173,-16,1650,-3,-697,6,-13,0,-3,3,0,16158,2175,1149,0,12984,-6124,287,7218,-4,0,0,-47,0,606841,0
606868,201,-2026,421,-55,-72,-129,10979,0,3,-178,-32,35061,-21,39,127,0,0,1,0,1,0,100,0,100,0,0,-1,1,8,1,22,72,3177,-5,1646,-3,-699,6,-13,0,-3,3,0,16174,2175,1149,0,12984,-6124,287,7228,-4,0,0,-47,0,606857,0
606878,317,-2015,409,-54,-70,-165,10978,-9,-5,-197,-48,35062,-38,39,127,0,0,1,0,1,0,100,0,100,0,0,-1,1,8,1,25,73,3171,-21,1642,-5,-703,6,-13,0,-3,3,0,16146,2175,1149,0,12984,-6124,287,7238,-4,0,0,-47,0,606857,0
606888,197,-2022,379,-42,-31,-201,10975,-10,-7,-302,-128,35069,-46,39,127,0,0,1,0,1,0,100,0,100,0,0,-1,4,8,1,27,73,3166,-109,1636,-6,-710,6,-13,0,-3,3,0,16119,2174,1149,0,12984,-6124,287,7248,-4,0,0,-47,0,606926,0
606898,427,-2006,439,-55,-45,-126,10954,-60,-33,-348,-104,35066,-50,38,127,0,0,1,0,1,0,100,0,100,0,0,-1,2,8,1,30,74,3164,-16,1631,-3,-717,6,-13,0,-3,3,0,16107,2170,1149,0,12984,-6124,287,7258,-4,0,0,-47,0,606926,0
606908,393,-2006,434,-57,-67,-64,10923,-68,-61,-246,-64,35064,-40,38,127,0,0,1,0,1,0,100,0,100,0,0,-1,1,8,1,32,74,3158,-5,1628,-1,-724,6,-13,0,-3,3,0,16080,2164,1149,0,12984,-6124,287,7268,-4,0,0,-47,0,606941,0
606918,389,-2010,421,-67,-65,0,10910,-18,14,-259,-64,35055,-23,38,127,0,0,1,0,1,0,100,0,100,0,0,-1,1,8,1,35,75,3159,0,1628,0,-728,6,-13,0,-3,3,0,16085,2162,1149,0,12984,-6124,287,7278,-4,0,0,-47,0,606941,0
606928,347,-2000,417,-71,-66,30,10908,4,56,-245,-56,35051,-18,38,127,0,0,1,0,1,0,100,0,100,0,0,-1,2,8,1,37,75,3159,5,1628,0,-731,6,-13,0,-3,3,0,16085,2161,1149,0,12984,-6124,287,7288,-4,0,0,-47,0,606941,0
606938,301,-2013,425,-76,-62,51,10906,0,18,-225,-56,35047,-16,38,127,0,0,1,0,1,0,100,0,100,0,0,-1,2,8,1,40,76,3156,-32,1630,1,-731,6,-13,0,-3,3,0,16068,2161,1149,0,12984,-6124,287,7298,-4,0,0,-47,0,606941,0
606948,289,-2011,440,-86,-46,47,10901,-13,-3,-236,-40,35045,-25,39,127,0,0,1,0,1,0,100,0,100,0,0,-1,2,8,1,42,76,3159,-10,1631,1,-730,6,-13,0,-3,3,0,16085,2160,1149,0,12984,-6124,287,7308,-4,0,0,-47,0,606956,0
606958,252,-2015,482,-112,-55,50,10898,-14,-5,-224,-40,35052,-32,39,127,0,0,1,0,1,0,100,0,100,0,0,-1,2,8,1,45,76,3156,10,1633,1,-729,6,-13,0,-3,3,0,16068,2159,1149,0,12984,-6124,287,7318,-4,0,0,-47,0,606958,0
606968,235,-2021,500,-132,-78,32,10891,-15,-12,-137,-24,35060,-32,38,127,0,0,1,0,1,0,100,0,100,0,0,-1,2,8,1,47,77,3159,16,1634,0,-727,6,-13,0,-3,3,0,16085,2158,1149,0,12984,-6124,287,7328,-4,0,0,-47,0,606960,0
606978,156,-2011,469,-155,-86,-68,10889,-12,6,-165,-40,35076,-38,38,127,0,0,1,0,1,0,100,0,100,0,0,-1,3,8,1,50,77,3157,10,1634,-2,-725,6,-13,0,-3,3,0,16074,2158,1149,0,12984,-6124,287,7338,-4,0,0,-47,0,607008,0
606988,-48,-2036,424,-177,-71,-163,10876,-29,-11,-196,-56,35078,-30,38,127,0,0,1,0,1,0,100,0,100,0,0,-1,3,8,1,52,77,3146,-71,1629,-4,-722,6,-13,0,-3,3,0,16018,2155,1148,0,12984,-6124,287,7348,-4,0,0,-47,0,607008,0
606998,-74,-2031,445,-188,-66,-371,10857,-39,-36,-260,-128,35065,-17,38,127,0,0,1,0,1,0,100,0,100,0,0,-1,2,8,1,55,78,3138,-137,1621,-11,-723,6,-13,0,-3,3,0,15979,2151,1148,0,12984,-6124,287,7358,-4,0,0,-47,0,607008,0
607008,-65,-2014,437,-208,-68,-514,10832,-67,-20,-411,-200,35056,6,39,127,0,0,1,0,1,0,100,0,100,0,0,-1,3,8,1,57,78,3125,-153,1607,-15,-727,6,-13,0,-3,3,0,15913,2147,1148,0,12984,-6124,287,7368,-4,0,0,-47,0,607008,0
607018,-121,-2007,436,-224,-65,-780,10773,-140,-81,-402,-280,35041,15,39,127,0,0,1,0,1,0,100,0,100,0,0,-1,3,8,1,60,79,3102,-192,1587,-23,-738,6,-13,0,-3,3,0,15796,2135,1147,0,12984,-6124,287,7378,-4,0,0,-47,0,607025,0
607028,-104,-2026,442,-239,-69,-921,10689,-204,-116,-473,-360,35045,11,39,127,0,0,1,0,1,0,100,0,100,0,0,-1,2,8,1,62,79,3075,-252,1560,-28,-753,6,-13,0,-3,3,0,15656,2119,1146,0,12984,-6124,287,7388,-4,0,0,-47,0,607027,0
607038,-147,-2013,535,-279,-88,-1178,10569,-275,-111,-395,-448,35046,-3,39,127,0,0,1,0,1,0,100,0,100,0,0,-1,3,8,1,65,80,3042,-335,1528,-35,-774,6,-13,0,-3,3,0,15489,2096,1145,0,12984,-6124,287,7398,-4,0,0,-47,0,607028,0
607048,-183,-2018,523,-330,-94,-1362,10437,-313,-92,-394,-528,35053,-6,38,127,0,0,1,0,1,0,100,0,100,0,0,-1,3,8,1,67,81,3006,-368,1488,-41,-801,6,-13,0,-3,3,0,15311,2070,1144,0,12984,-6124,287,7408,-4,0,0,-47,0,607058,0
607058,-105,-2017,606,-416,-97,-1673,10285,-330,-67,-386,-608,35064,-21,38,127,0,0,1,0,1,0,100,0,100,0,0,-1,4,8,1,70,81,2964,-428,1441,-51,-836,6,-13,0,-3,3,0,15090,2040,1142,0,12984,-6124,287,7418,-4,0,0,-47,0,607058,0
607068,-25,-1963,494,-471,-117,-1853,10122,-362,-59,-431,-752,35059,-12,39,127,0,0,1,0,1,0,100,0,100,0,0,-1,5,8,1,72,82,2912,-571,1387,-56,-880,6,-13,0,-3,3,0,14815,2006,1139,0,12984,-6124,287,7428,-4,0,0,-47,0,607058,0
607078,4,-1967,479,-526,-160,-2088,9941,-412,-48,-434,-904,35057,-17,39,127,0,0,1,0,1,0,100,0,100,0,0,-1,5,8,1,75,83,2863,-576,1326,-63,-932,6,-13,0,-3,3,0,14551,1968,1137,0,12984,-6124,287,7438,-4,0,0,-47,0,607058,0
607088,-16,-1961,460,-556,-173,-2255,9741,-448,-78,-448,-1056,35052,-2,39,127,0,0,1,0,1,0,100,0,100,0,0,-1,6,8,1,77,83,2802,-620,1260,-68,-988,6,-13,0,-3,3,0,14230,1926,1134,0,12984,-6124,287,7448,-4,0,0,-47,0,607090,0
607098,37,-1916,414,-618,-175,-2541,9512,-523,-88,-491,-1184,35060,-8,38,127,0,0,1,0,1,0,100,0,100,0,0,-1,6,8,1,80,84,2734,-648,1185,-77,-1052,6,-13,0,-3,3,0,13866,1878,1130,0,12984,-6124,287,7458,-4,0,0,-47,0,607092,0
607108,86,-1935,399,-645,-173,-2714,9254,-589,-111,-497,-1352,35053,-2,38,127,0,0,1,0,1,0,100,0,100,0,0,-1,4,8,1,82,85,2661,-730,1104,-82,-1124,6,-13,0,-3,3,0,13478,1824,1125,0,12984,-6124,287,7468,-4,0,0,-47,0,607108,0
607118,236,-1922,424,-678,-235,-2908,8967,-655,-107,-482,-1472,35048,4,38,127,0,0,1,0,1,0,100,0,100,0,0,-1,6,8,1,85,86,2583,-747,1018,-88,-1205,6,-13,0,-3,3,0,13060,1764,1120,0,12984,-6124,287,7478,-4,0,0,-47,0,607124,0
607128,253,-1915,419,-720,-256,-3017,8652,-713,-114,-483,-1656,35039,23,38,127,0,0,1,0,1,0,100,0,100,0,0,-1,4,8,1,87,87,2501,-802,927,-92,-1290,6,-13,0,-3,3,0,12643,1697,1114,0,12984,-6124,287,7488,-4,0,0,-47,0,607125,0
607138,332,-1913,450,-770,-266,-3151,8346,-760,-108,-489,-1752,35039,31,39,127,0,0,1,0,1,0,100,0,100,0,0,-1,6,8,1,90,88,2418,-823,833,-96,-1379,6,-13,0,-3,3,0,12221,1631,1108,0,12984,-6124,287,7498,-4,0,0,-47,0,607125,0
607148,511,-1848,410,-792,-282,-3202,7983,-812,-93,-443,-1816,35042,42,39,127,0,0,1,0,1,0,100,0,100,0,0,-1,8,8,1,92,89,2329,-878,736,-97,-1475,6,-13,0,-3,3,0,11759,1553,1101,0,12984,-6124,287,7508,-4,0,0,-47,0,607143,0
607158,620,-1928,371,-836,-357,-3168,7610,-833,-62,-465,-1848,35050,40,38,127,0,0,1,0,1,0,100,0,100,0,0,-1,7,8,1,95,89,2241,-873,638,-96,-1574,6,-13,0,-3,3,0,11297,1471,1094,0,12984,-6124,287,7518,-4,0,0,-47,0,607143,0
607168,697,-1937,343,-803,-398,-3111,7226,-848,-46,-374,-1848,35048,34,38,127,0,0,1,0,1,0,100,0,100,0,0,-1,9,8,1,97,90,2158,-834,542,-94,-1673,6,-13,0,-3,3,0,10874,1384,1088,0,12984,-6124,287,7528,-4,0,0,-47,0,607158,0
607178,831,-1973,179,-741,-415,-2971,6846,-827,-12,-377,-1816,35046,19,38,127,0,0,1,0,1,0,100,0,100,0,0,-1,9,5,1,100,91,2076,-818,450,-90,-1771,6,-13,0,-3,3,0,10475,1294,1082,0,12984,-6124,287,7538,-4,0,0,-47,0,607174,0
607188,835,-1925,234,-694,-476,-2858,6477,-799,34,-359,-1744,35045,8,39,127,0,0,1,0,1,0,100,0,100,0,0,-1,11,5,1,102,92,2010,-703,361,-87,-1864,6,-13,0,-3,3,0,10155,1213,1077,0,12984,-6124,287,7548,-4,0,0,-47,0,607174,0
607198,942,-2220,286,-628,-565,-2706,6118,-774,46,-346,-1656,35046,12,39,127,0,0,1,0,1,0,100,0,100,0,0,-1,12,5,1,105,93,1945,-620,277,-82,-1953,6,-13,0,-3,3,0,9842,1141,1073,0,12984,-6124,287,7558,-4,0,0,-47,0,607191,0
607208,642,-2510,366,-554,-598,-2509,5776,-737,55,-294,-1512,35051,12,39,127,0,0,1,0,1,0,100,0,100,0,0,-1,19,5,1,107,93,1895,-516,198,-76,-2031,6,-13,0,-3,3,0,9599,1070,1070,0,12984,-6124,287,7568,-4,0,0,-47,0,607191,0
607218,572,-2701,237,-642,-750,-2238,5460,-678,86,-253,-1184,35043,28,39,127,0,0,0,0,0,0,100,0,0,0,1,-1,34,6,1,110,95,1865,-247,126,-68,-2096,0,0,0,1,4,5,9456,1002,1069,0,12984,-6124,287,7578,-4,0,0,1,0,607280,0
607228,644,-2670,283,-701,-730,-2064,5180,-579,121,-175,-688,35048,22,39,127,0,0,0,0,0,0,100,0,0,0,0,-1,47,6,1,2,97,1865,27,61,-62,-2152,0,0,0,0,8,7,9456,942,1069,0,12984,-6124,287,7588,-4,0,0,1,0,607280,0
607238,613,-2397,39,-509,-521,-2122,4963,-440,197,-94,-216,35042,31,38,127,0,0,0,0,0,0,100,0,0,0,0,-1,51,6,28,5,101,1866,27,-2,-64,-2208,0,0,0,0,12,11,9462,895,1069,0,12984,-6124,287,7598,-4,0,0,2,0,607280,0
607248,820,-2575,-43,-331,-493,-1924,4838,-194,300,267,136,35047,14,38,127,0,0,0,0,0,0,100,0,0,0,0,-1,49,6,30,7,104,1890,230,-63,-58,-2263,0,0,0,1,13,12,9578,868,1070,417,12984,-6124,287,7608,-4,0,0,3,0,607280,0
607258,1387,-2267,55,-328,-560,-1371,4876,168,504,466,416,35045,-2,39,127,0,0,0,0,0,0,100,0,0,0,0,-1,61,6,30,10,108,1934,516,-113,-41,-2317,0,0,0,0,18,13,9789,877,1072,729,12984,-6124,287,7618,-4,0,0,4,0,607291,0
607268,1412,-2105,121,-419,-799,-1052,5001,331,471,513,768,35051,-3,38,127,0,0,0,0,0,0,100,0,0,0,0,-1,68,6,30,12,112,2008,725,-149,-32,-2364,0,0,0,0,20,15,10144,903,1077,806,12984,-6124,287,7628,-4,0,0,5,0,607292,0
607278,970,-2468,162,-536,-744,-724,5185,441,269,507,1128,35056,10,38,127,0,0,0,0,0,0,100,0,0,0,0,-1,69,6,30,15,118,2087,873,-174,-22,-2392,0,1,0,-2,20,17,10528,943,1083,801,12984,-6124,287,7638,-4,0,0,6,0,607292,0
607288,615,-2870,197,-494,-667,-541,5430,583,228,531,1480,35055,22,38,127,0,0,0,0,0,0,100,0,0,0,0,-1,74,6,30,17,122,2186,994,-193,-16,-2402,0,1,1,-3,22,18,11008,996,1090,845,12984,-6124,287,7648,-4,0,0,7,0,607292,0
607298,554,-2867,385,-391,-482,-420,5741,728,250,560,1888,35053,13,39,127,0,0,0,0,0,0,100,0,0,0,0,-1,92,6,30,20,128,2307,1241,-206,-12,-2402,0,1,1,-2,28,22,11644,1062,1099,899,12984,-6124,287,7658,-4,0,0,9,0,607292,0
607308,613,-2749,446,-337,-378,-389,6119,883,256,569,2264,35055,27,39,127,0,0,0,0,0,0,100,0,0,0,0,-1,99,6,30,22,132,2434,1268,-219,-11,-2403,0,1,1,-1,32,24,12304,1141,1109,921,12984,-6124,287,7668,-4,0,0,10,0,607292,0
607318,737,-2708,553,-394,-600,-109,6569,1034,275,575,2720,35063,22,39,127,0,0,0,0,0,0,100,0,0,0,0,-1,107,6,30,25,139,2586,1538,-225,-3,-2398,0,2,1,0,37,28,13072,1232,1121,941,12984,-6124,287,7678,-4,0,0,12,0,607308,0
607328,697,-2851,693,-384,-880,6,7103,1234,302,615,3168,35072,53,39,127,0,0,0,0,0,0,100,0,0,0,0,-1,116,5,30,27,143,2755,1724,-226,0,-2390,0,2,2,0,40,30,13977,1355,1131,1016,12984,-6124,287,7688,-4,0,0,14,0,607337,0
607338,187,-3222,510,-260,-1137,183,7730,1441,343,669,3688,35066,60,39,127,0,0,0,0,0,0,100,0,0,0,0,-1,132,5,30,30,151,2945,1933,-223,5,-2371,0,3,2,3,44,35,14990,1498,1141,1114,12984,-6124,287,7698,-4,0,0,16,0,607342,0
607348,-242,-3241,371,-209,-1296,327,8456,1654,368,681,4232,35051,63,39,127,0,0,0,0,0,0,100,0,0,0,0,-1,141,5,30,32,157,3165,2241,-215,9,-2338,0,3,2,5,48,38,16113,1655,1149,1142,12984,-6124,287,7708,-4,0,0,18,0,607342,0
607358,-259,-3236,284,-174,-1242,154,9283,1899,388,888,5048,35031,72,39,127,0,0,0,0,0,0,100,0,0,0,0,-1,162,5,30,35,166,3423,2565,-207,4,-2302,0,4,3,6,57,43,17458,1830,1155,1497,12984,-6124,287,7718,-4,0,0,21,0,607342,0
607368,-491,-3187,240,-147,-1192,115,10256,2247,483,905,5864,35027,91,38,127,0,0,0,0,0,0,100,0,0,0,0,-1,179,6,30,37,173,3693,2757,-203,3,-2268,0,4,3,7,63,46,18892,2034,1161,1534,12984,-6124,287,7728,-4,0,0,23,0,607359,0
607378,243,-3430,-106,-334,-1069,-217,11397,2639,612,939,6616,35023,123,38,127,0,0,0,0,0,0,100,0,0,0,0,-1,194,6,30,40,183,3970,2752,-204,-6,-2245,0,5,4,7,72,50,20367,2257,1169,1602,12984,-6124,287,7738,-4,0,0,26,0,607359,0
607388,-552,-3156,264,-411,-1127,-162,12686,2864,602,632,6800,35019,155,39,127,0,0,0,0,0,0,100,0,0,0,0,-1,204,6,30,42,191,4248,2828,-211,-4,-2225,0,6,4,5,77,55,21830,2511,1179,1088,12984,-6124,287,7748,-4,0,0,29,0,607379,0
607398,550,-3407,25,-596,-1179,-846,13989,2870,262,642,7096,35018,155,39,127,0,0,0,0,0,0,100,0,0,0,0,-1,204,6,30,45,203,4517,2587,-224,-25,-2221,0,7,5,5,85,60,23248,2757,1190,1116,12984,-6124,287,7758,-4,0,0,33,0,607392,0
607408,152,-3440,416,-599,-1246,-1195,15324,2959,79,365,6968,35016,154,38,127,0,0,0,0,0,0,100,0,0,0,0,-1,213,6,30,47,212,4743,2268,-258,-36,-2238,0,7,5,3,85,67,24512,3012,1198,638,12984,-6124,287,7768,-4,0,0,36,0,607392,0
607418,201,-2967,659,-558,-1644,-1085,16667,2921,77,263,6560,35019,126,39,127,0,0,0,0,0,0,100,0,0,0,0,-1,197,7,30,50,226,4957,2169,-292,-33,-2253,0,8,6,5,90,75,25671,3273,1206,463,12984,-6124,287,7778,-4,0,0,39,0,607408,0
607428,317,-2734,715,-524,-1910,-879,17933,2731,-157,251,6400,35021,95,39,127,0,0,0,0,0,0,100,0,0,0,0,-1,196,7,30,52,236,5184,2246,-322,-26,-2264,0,9,7,8,95,78,26948,3516,1213,444,12984,-6124,287,7788,-4,0,0,42,0,607429,0
607438,2176,-3564,589,-626,-2351,-1771,19164,2719,-209,292,6200,35031,78,38,127,0,0,0,0,0,0,100,0,0,0,0,-1,189,7,30,55,251,5373,1840,-356,-54,-2294,0,10,8,12,99,82,28000,3742,1219,519,12984,-6124,287,7798,-4,0,0,46,0,607431,0
607448,1790,-3979,629,-544,-2451,-3647,20398,2671,-44,-81,4120,35031,67,38,127,0,0,0,0,0,0,100,0,0,0,0,-1,196,7,30,57,262,5338,-642,-446,-111,-2389,0,11,9,14,90,93,27804,3975,1218,0,12984,-6124,287,7808,-4,0,0,49,0,607458,0
607458,1957,-4153,595,-518,-3000,-4789,21364,1757,-583,-1799,736,35047,44,39,127,0,0,0,0,0,0,100,0,0,0,0,-1,151,8,30,60,285,5166,-1862,-582,-146,-2524,1,12,10,19,75,116,26850,4158,1213,0,12984,-6124,287,7818,-4,0,0,52,0,607458,0
607468,1880,-4095,669,-505,-3556,-4962,21587,-214,-2117,-3324,-2088,35060,-18,39,127,0,0,0,0,0,0,100,0,0,0,0,-1,163,8,30,62,303,4930,-2356,-733,-151,-2674,1,13,11,22,72,130,25528,4200,1205,0,12984,-6124,287,7828,-4,0,0,53,0,607458,0
607478,1299,-3823,441,-236,-4510,-5404,21153,-1209,-2766,-1690,-3952,35057,0,38,127,0,0,0,0,0,0,100,0,0,0,0,-1,173,8,30,65,335,4666,-2653,-894,-164,-2830,1,13,13,28,69,149,24075,4117,1196,0,12984,-6124,287,7838,-4,0,0,56,0,607458,0
607488,1405,-3669,346,-189,-5062,-5558,20368,-1923,-1792,-1356,-5176,35041,53,39,127,0,0,0,0,0,0,100,0,0,0,0,-1,160,8,30,67,357,4412,-2576,-1061,-169,-2989,1,14,14,34,69,159,22690,3969,1186,0,12984,-6124,287,7848,-4,0,0,57,0,607491,0
607498,1358,-3723,366,-141,-5497,-5704,19353,-2319,-1074,-790,-5648,35018,168,39,127,0,0,0,0,0,0,100,0,0,0,0,-1,140,9,30,70,393,4179,-2285,-1234,-174,-3151,2,15,16,40,71,173,21467,3777,1176,0,12984,-6124,287,7858,-4,0,0,59,0,607492,0
607508,1468,-3897,381,-60,-5597,-5757,18273,-2381,-505,-482,-5664,35014,181,39,127,0,0,0,0,0,0,100,0,0,0,0,-1,125,9,30,72,419,3972,-2037,-1409,-175,-3314,2,15,17,46,74,182,20379,3579,1169,0,12984,-6124,287,7868,-4,0,0,61,0,607492,0
607518,1659,-3940,326,65,-5602,-5880,17195,-2372,-87,-331,-5568,35021,149,38,127,0,0,0,0,0,0,100,0,0,0,0,-1,111,9,30,75,460,3783,-1873,-1587,-179,-3479,3,16,20,55,80,195,19376,3375,1163,0,12984,-6124,287,7878,-4,0,0,63,0,607564,0
607528,1661,-3627,148,3,-5415,-5968,16116,-2369,3,-306,-5456,35033,100,39,127,0,0,0,0,0,0,100,0,0,0,0,-1,106,9,30,77,488,3582,-2005,-1768,-182,-3649,3,17,21,61,85,204,18294,3166,1158,0,12984,-6124,287,7888,-4,0,0,65,0,607575,0
607538,1683,-3107,41,106,-4854,-6046,15054,-2308,36,-357,-5456,35036,80,39,127,0,0,0,0,0,0,100,0,0,0,0,-1,100,10,30,80,527,3369,-2186,-1952,-184,-3822,4,18,24,68,92,215,17176,2961,1153,0,12984,-6124,287,7898,-4,0,0,67,0,607575,0
607548,1490,-2639,-279,159,-4565,-6024,14015,-2294,77,-543,-5736,35038,78,39,127,0,0,0,0,0,0,100,0,0,0,0,-1,98,10,30,82,550,3139,-2296,-2136,-183,-3996,5,19,26,73,96,221,15985,2762,1148,0,12984,-6124,287,7908,-4,0,0,69,0,607575,0
607558,1203,-2018,-612,131,-4068,-5576,12926,-2450,-74,-525,-5752,35022,92,39,127,0,0,0,0,0,0,100,0,0,0,0,-1,77,10,30,85,581,2928,-2103,-2313,-170,-4162,6,20,28,78,103,225,14902,2557,1140,0,12984,-6124,287,7918,-4,0,0,72,139,607575,0
607568,933,-1664,-707,72,-3811,-5044,11794,-2479,-191,-249,-5392,35024,83,38,127,0,0,0,0,0,0,100,0,0,0,0,-1,62,10,30,87,598,2744,-1774,-2474,-153,-4310,6,21,30,79,109,224,13919,2335,1130,0,12984,-6124,287,7928,-4,0,0,74,142,607575,0
607578,556,-1286,-552,160,-3450,-4170,10722,-2287,64,-86,-4640,35025,71,38,127,0,0,0,0,0,0,100,0,0,0,0,-1,48,10,30,90,617,2604,-1312,-2611,-127,-4430,7,22,33,80,118,218,13172,2125,1122,0,12984,-6124,287,7938,-4,0,0,77,145,607575,0
607588,409,-987,-579,261,-3002,-3678,9773,-1997,381,21,-3832,35035,48,39,127,0,0,0,0,0,0,100,0,0,0,0,-1,51,11,30,92,626,2494,-1087,-2730,-112,-4525,8,23,34,80,124,212,12610,1933,1114,34,12984,-6124,287,7948,-4,0,0,80,146,607575,0
607598,104,-556,-657,576,-2056,-2858,8949,-1740,483,62,-3128,35047,25,39,127,0,0,0,0,0,0,100,0,0,0,0,-1,55,11,30,95,631,2397,-955,-2828,-87,-4597,9,25,37,81,132,199,12115,1760,1106,100,12984,-6124,287,7958,-4,0,0,84,147,607590,0
607608,-102,-188,-720,803,-1453,-2232,8236,-1490,443,54,-2536,35067,17,39,127,0,0,0,0,0,0,100,0,0,0,0,-1,57,11,30,97,-2,2304,-867,-2903,-68,-4618,9,26,38,81,136,187,11632,1608,1099,86,12984,-6124,287,7968,-4,0,0,86,147,607615,0
607618,-378,460,-580,1105,-541,-1158,7635,-1251,428,6,-2056,35082,6,38,127,0,0,0,0,0,0,100,0,0,0,0,-1,68,11,30,100,-17,2226,-725,-2952,-35,-4498,10,28,41,80,142,166,11222,1477,1093,9,12984,-6124,287,7978,-4,0,0,90,145,607626,0
607628,-538,842,-524,1253,90,-380,7138,-1039,409,-21,-1752,35079,1,38,127,0,0,0,0,0,0,100,0,0,0,0,-1,82,20,30,102,-33,2156,-708,-2973,-11,-4330,11,29,42,78,147,150,10863,1363,1088,0,12984,-6124,287,7988,-4,0,0,93,144,607626,0
607638,-585,1100,-541,1420,1085,860,6725,-860,431,-89,-1472,35065,4,38,127,0,0,0,0,0,0,100,0,0,0,0,-1,105,20,30,105,-68,2097,-604,-2962,26,-4127,12,31,43,74,152,122,10576,1265,1083,0,12984,-6124,287,7998,-4,0,0,97,140,607642,0
607648,-627,1167,-508,1564,1722,1642,6377,-727,313,-149,-1280,35057,12,39,127,0,0,0,0,0,0,100,0,0,0,0,-1,117,20,30,107,-97,2039,-565,-2922,50,-3895,12,32,44,72,156,103,10293,1193,1079,0,12984,-6124,287,8008,-4,0,0,100,138,607642,0
607658,-739,948,-316,1888,2522,2839,6071,-652,154,-196,-1152,35056,23,38,127,0,0,0,0,0,0,100,0,0,0,0,-1,135,21,30,110,-148,1996,-461,-2850,86,-3639,13,34,45,68,161,75,10086,1131,1076,0,12984,-6124,287,8018,-4,0,0,104,133,607642,0
607668,-644,883,-207,2071,2934,3591,5800,-572,147,-195,-856,35065,19,38,127,0,0,0,0,0,0,100,0,0,0,0,-1,138,21,30,112,-186,1969,-186,-2749,109,-3361,14,35,46,67,165,56,9958,1075,1074,0,12984,-6124,287,8028,-4,0,0,107,129,607675,0
607678,-559,1036,-168,2222,3356,4582,5568,-479,139,-184,-576,35069,27,39,127,0,0,0,0,0,0,100,0,0,0,0,-1,134,21,30,115,-248,1959,-98,-2621,139,-3053,15,37,46,66,171,30,9911,1025,1074,0,12984,-6124,287,8038,-4,0,0,111,123,607691,0
607688,-375,1089,-171,2310,3545,5189,5376,-398,156,-116,-232,35071,14,39,127,0,0,0,0,0,0,100,0,0,0,0,-1,133,22,30,117,-291,1958,27,-2470,158,-2715,15,39,46,65,175,14,9906,984,1074,0,12984,-6124,287,8048,-4,0,0,114,119,607691,0
607698,-130,1100,-227,2484,3750,5910,5260,-182,217,113,16,35066,0,38,127,0,0,0,0,0,0,100,0,0,100,0,-1,139,22,30,120,-356,1954,0,-2298,180,-2349,16,41,46,65,178,-7,9884,959,1074,177,12984,-6124,287,8058,-4,0,0,118,113,607691,0
607708,-29,1083,-124,2492,3792,6302,5249,45,355,109,40,35056,-14,38,127,0,0,0,0,0,0,100,0,0,100,0,-1,150,22,30,122,-399,1954,-21,-2110,192,-1962,16,42,46,65,180,-20,9884,957,1074,170,12984,-6124,287,8068,-4,0,0,121,109,607691,0
607718,114,1007,-67,2437,3927,6652,5253,-15,246,29,32,35060,-18,39,127,0,0,0,0,0,0,100,0,0,100,0,-1,161,23,30,125,-461,1957,32,-1911,203,-1920,17,44,46,64,182,-37,9900,958,1074,45,12984,-6124,287,8078,-4,0,0,125,103,607716,0
607728,264,940,-176,2364,4067,6689,5257,18,10,115,48,35069,1,39,127,0,0,0,0,0,0,100,0,0,100,0,-1,169,23,30,127,-499,1959,10,-1707,204,-1866,18,46,45,63,182,-47,9911,959,1074,180,12984,-6124,287,8088,-4,0,0,128,99,607716,0
607738,577,977,-285,2180,4292,6570,5258,11,-10,192,88,35072,-3,39,127,0,0,0,0,0,0,100,0,0,100,0,-1,167,23,30,130,-552,1964,54,-1505,200,-1800,19,48,45,61,181,-60,9932,959,1074,301,12984,-6124,287,8098,-4,0,0,132,93,607758,0
607748,976,1011,-435,1974,4430,6360,5273,46,17,281,136,35073,-4,39,127,0,0,0,0,0,0,100,0,0,100,0,-1,160,24,30,132,-584,1976,104,-1308,194,-1727,19,49,44,58,179,-67,9990,962,1075,441,12984,-6124,287,8108,-4,0,0,135,89,607761,0
607758,1374,867,-419,1736,4612,5714,5315,121,80,267,120,35062,-19,39,127,0,0,0,0,0,0,100,0,0,100,0,-1,138,24,30,135,-626,1983,109,-1124,174,-1654,20,52,43,52,172,-75,10022,971,1075,419,12984,-6124,287,8118,-4,0,0,139,84,607763,0
607768,1633,709,-358,1540,4626,5150,5372,125,88,59,24,35060,-25,39,127,0,0,0,0,0,0,100,0,0,100,0,-1,131,24,30,137,-650,1981,0,-960,157,-1591,20,53,43,49,164,-80,10017,983,1075,92,12984,-6124,287,8128,-4,0,0,141,81,607766,0
607778,2099,476,-275,1146,4661,4338,5382,-21,-61,50,24,35052,-23,39,127,0,0,0,0,0,0,100,0,0,100,0,-1,123,25,30,140,-681,1987,38,-818,132,-1539,21,55,42,42,151,-84,10043,985,1075,78,12984,-6124,287,8138,-4,0,0,144,76,607768,0
607788,2189,382,-184,980,4680,3758,5386,37,-111,244,80,35058,-7,39,127,0,0,0,0,0,0,100,0,0,100,0,-1,117,25,30,142,-698,1994,38,-696,114,-1503,21,56,41,37,141,-86,10075,986,1076,383,12984,-6124,287,8148,-4,0,0,145,73,607775,0
607798,2509,533,-188,622,4647,3039,5403,48,27,333,168,35066,3,38,127,0,0,0,0,0,0,100,0,0,100,0,-1,103,25,30,145,-720,2010,192,-594,92,-1487,21,57,40,32,125,-90,10155,990,1077,523,12984,-6124,287,8158,-4,0,0,147,69,607792,0
607808,3589,35,-232,392,4224,2414,5462,176,92,331,248,35071,12,39,127,0,0,0,0,0,0,100,0,0,100,0,-1,97,26,30,147,-731,2029,236,-512,73,-1488,22,58,39,27,113,-93,10245,1003,1078,521,12984,-6124,287,8168,-4,0,0,148,67,607792,0
607818,8209,-3782,2241,1697,2118,-4376,5544,64,163,-1183,-2392,35070,6,38,127,0,0,0,0,0,0,100,0,0,100,0,0,428,26,30,150,-742,1752,-3202,-26,-133,-1613,22,59,38,22,44,-69,8917,1020,1063,0,1661,375,288,2,1,0,3,149,65,607825,0
607828,9625,-1581,1301,1702,373,-5115,5009,-1711,-1118,-2751,-3584,35054,55,38,127,0,0,0,0,0,0,100,0,0,200,0,0,345,26,30,152,4,1483,-2664,-172,-156,-1815,22,59,38,34,-7,-41,7663,905,1059,0,1661,375,288,12,1,0,3,149,65,607825,0
607838,1495,204,-749,-65,-243,-1834,4154,-2047,-1936,-904,-3008,35027,106,39,127,0,0,0,0,0,0,100,0,0,200,0,0,192,27,30,155,22,1259,-1922,-271,-55,-1990,22,59,38,34,-34,-27,6645,727,1071,0,1661,375,288,22,1,0,3,149,65,607825,0
607848,-202,-944,755,-1326,-3364,-949,3442,-1184,-352,1625,-496,35015,118,39,127,0,0,0,0,0,0,100,0,0,200,0,0,180,27,30,157,34,1096,-1565,-311,-28,-2068,23,59,37,14,-34,-29,5908,588,1084,2573,1661,375,288,32,1,0,3,149,65,607825,0
607858,964,-4789,741,-643,-800,-1783,3241,-93,1332,1227,-392,35023,80,39,127,0,0,0,0,0,0,100,0,0,200,0,0,124,27,30,160,53,939,-1532,-350,-54,-2100,23,58,37,10,-35,-31,5181,549,1100,1971,1661,375,288,42,1,0,3,149,65,607864,0
607868,-71,-4674,251,-460,-388,-1400,3102,-471,1179,-1084,-752,35060,-8,39,127,0,0,0,0,0,0,100,0,0,200,0,0,134,28,30,162,68,822,-1071,-396,-42,-2123,23,58,37,15,-28,-26,4633,522,1117,0,1661,375,288,52,1,0,3,149,65,607868,0
607878,1098,-3484,-287,-1662,194,-891,2900,-373,-91,122,368,35069,-29,38,127,0,0,0,0,0,0,100,0,0,200,0,0,112,28,30,165,94,750,-653,-434,-27,-2146,23,58,36,9,-10,-16,4273,483,1131,201,1661,375,288,62,1,0,3,149,65,607870,0
607888,1838,-3647,251,-1707,348,-693,3006,513,487,1380,1120,35055,-10,38,127,0,0,1,0,0,1,100,0,0,200,0,0,96,28,30,167,114,726,-280,-456,-21,-2168,23,58,36,9,-10,-16,4149,503,1136,2289,1661,375,288,72,1,0,3,149,65,607892,0
607898,1162,-1838,733,-1356,-75,-140,3275,605,967,402,1224,35048,9,39,127,0,0,1,0,0,1,100,0,0,200,0,130,73,29,30,170,142,736,54,-465,-4,-2185,23,58,36,9,-10,-16,4200,556,1134,665,1661,375,288,82,1,0,3,149,65,607894,0
607908,1965,-1379,626,-1347,-574,63,3556,666,290,742,2152,35051,13,39,127,0,0,1,0,0,1,100,0,0,200,0,235,59,29,30,172,153,758,274,-463,1,-2203,23,58,36,9,-10,-16,4312,611,1129,1223,1661,375,288,92,1,1,3,149,65,607894,0
607918,2195,-1599,-456,-1077,-964,687,4023,1195,376,1573,3816,35053,32,39,127,0,0,1,0,0,1,100,0,0,200,0,350,56,29,30,175,161,794,417,-452,20,-2218,23,58,36,9,-10,-16,4498,702,1121,2575,1661,375,288,102,1,1,3,149,65,607910,0
607928,2013,-1777,-727,-913,-1928,1794,4721,1614,830,2390,4904,35039,72,38,127,0,0,1,0,0,1,100,0,0,200,0,486,60,30,30,177,167,893,1131,-415,54,-2200,23,58,36,9,-10,-16,4964,843,1107,3863,1661,375,288,112,1,1,3,149,65,607941,0
607938,2692,-741,-334,-1014,-2009,2678,5451,1566,503,3163,4616,35015,184,38,127,0,0,1,0,0,1,100,0,0,200,0,526,74,30,30,180,177,1041,1576,-339,81,-2165,23,58,36,9,-10,-16,5656,1000,1088,5028,1661,375,288,122,1,1,3,149,65,607941,0
607948,2493,-459,-264,-1014,-2681,2890,6030,1111,-230,3283,3128,34971,301,38,127,0,0,1,0,0,1,100,0,0,200,0,462,103,30,30,182,182,1205,1494,-253,88,-2130,23,58,36,9,-10,-16,6405,1123,1076,5158,1661,375,288,132,1,1,3,149,65,607941,0
607958,219,-981,-113,-429,-319,1750,6267,246,-944,2850,1016,34943,359,39,127,0,0,1,0,0,1,100,0,0,200,0,463,63,30,30,185,185,1267,549,-181,53,-2085,23,58,36,9,-10,-16,6684,1171,1070,4456,1661,375,288,142,1,1,3,149,65,607941,0
607968,-532,-1552,-673,231,324,809,6204,-216,-1265,3068,248,34958,286,39,127,0,0,1,0,0,1,100,0,0,200,0,463,64,30,30,187,0,1252,-214,-146,24,-2014,23,58,36,9,-10,-16,6616,1158,1072,4802,1661,375,288,152,1,1,3,149,65,607957,0
607978,1203,-1164,-387,73,1386,465,6035,-428,-762,2922,120,35005,161,39,127,0,0,1,0,0,1,100,0,0,200,0,463,68,30,30,190,-5,1210,-466,-131,14,-2004,23,58,36,9,-10,-16,6430,1124,1075,4588,1661,375,288,162,1,1,3,149,65,607958,0
607988,1887,-1743,-503,47,1352,726,5829,-436,-271,2901,216,35039,49,39,127,0,0,1,0,0,1,100,0,0,200,0,463,71,30,30,192,-10,1159,-499,-112,22,-2014,23,58,36,9,-10,-16,6195,1081,1079,4573,1661,375,288,172,1,1,3,149,65,607992,0
607998,1336,-1984,138,320,1045,1318,5698,-209,73,2917,424,35050,12,39,127,0,0,1,0,0,1,100,0,0,200,0,463,61,30,30,195,-19,1131,-263,-79,40,-2000,23,58,36,9,-10,-16,6069,1053,1081,4607,1661,375,288,182,1,1,3,149,65,608008,0
608008,1288,-2236,735,412,688,1628,5691,56,392,2823,944,35039,7,38,127,0,0,1,0,0,1,100,0,0,200,0,463,56,30,30,197,-24,1126,10,-33,49,-1966,23,58,36,9,-10,-16,6044,1052,1082,4460,1661,375,288,192,1,1,3,149,65,608010,0
608018,1312,-2082,902,378,335,1782,5714,36,306,2924,904,35036,47,38,127,0,0,1,0,0,1,100,0,0,200,0,463,58,30,30,200,-31,1142,120,19,54,-1926,23,58,36,9,-10,-16,6120,1057,1081,4615,1661,375,288,202,1,1,3,149,65,608010,0
608028,871,-2227,675,460,426,1848,5754,134,67,2849,1288,35024,82,38,127,0,0,1,0,0,1,100,0,0,200,0,463,53,30,30,202,-34,1146,87,75,56,-1877,23,58,36,9,-10,-16,6140,1065,1080,4495,1661,375,288,212,1,1,3,149,65,608010,0
608038,748,-2242,560,375,496,1990,5862,295,172,2853,1744,35021,92,39,127,0,0,1,0,0,1,100,0,0,200,0,463,44,30,30,205,-38,1171,247,133,60,-1819,23,58,36,9,-10,-16,6251,1088,1078,4493,1661,375,288,222,1,1,3,149,65,608060,0
608048,948,-2249,549,143,233,2236,6080,552,339,2932,2280,35021,115,39,127,0,0,1,0,0,1,100,0,0,200,0,463,39,30,30,207,-39,1216,477,198,68,-1758,23,58,36,9,-10,-16,6454,1133,1075,4602,1661,375,288,232,1,1,3,149,65,608060,0
608058,1028,-2197,631,-32,-137,2609,6398,762,400,2964,2968,35013,141,39,127,0,0,1,0,1,1,100,0,100,200,0,463,28,30,30,210,1,1282,664,273,79,-1694,23,58,36,9,-10,-16,6748,1197,1069,4629,1661,375,288,242,1,1,3,149,65,608060,0
608068,926,-1944,565,8,-387,2702,6779,860,319,2950,3096,34999,184,39,127,0,0,1,0,1,1,100,0,100,200,0,463,24,30,28,2,4,1369,807,354,82,-1622,23,58,36,9,-10,-16,7139,1278,1062,4576,1661,375,288,252,1,1,3,149,65,608076,0
608078,683,-1801,631,46,-571,2638,7175,854,151,2957,2928,34969,219,38,127,0,0,1,0,1,1,100,0,100,200,0,466,15,30,28,5,10,1463,889,437,80,-1546,23,58,36,9,-10,-16,7571,1372,1059,4575,1661,375,288,262,1,1,3,149,65,608077,0
608088,744,-1631,497,-12,-524,2510,7531,743,-58,2971,2640,34961,230,38,127,0,0,1,0,1,1,100,0,100,200,0,469,14,30,28,7,13,1533,736,515,76,-1476,23,58,36,9,-10,-16,7899,1454,1058,4592,1661,375,288,272,1,1,3,149,65,608077,0
608098,815,-1603,300,-120,-320,2324,7825,599,-191,2983,2336,34963,226,38,127,0,0,1,0,1,0,100,0,100,0,0,469,15,30,12,10,18,1599,637,589,70,-1410,23,58,36,9,-10,-16,8207,1518,1058,4609,1661,375,288,282,1,1,3,149,65,608108,0
608108,802,-1627,255,-111,-180,2250,8069,516,-223,3001,2048,34978,210,38,127,0,0,1,0,1,0,100,0,100,0,0,469,18,30,12,12,21,1649,521,658,68,-1353,23,58,36,9,-10,-16,8437,1572,1060,4644,1661,375,288,292,1,1,3,149,65,608109,0
608118,788,-1621,294,-117,-28,2164,8273,443,-175,2980,1896,34988,199,38,127,0,0,1,0,1,0,100,0,100,0,0,469,23,30,12,15,23,1688,406,725,66,-1297,23,58,36,9,-10,-16,8621,1616,1061,4618,1661,375,288,302,1,1,3,149,65,608109,0
608128,724,-1717,388,-274,-119,2192,8480,465,-79,3004,1968,34987,171,38,127,0,0,1,0,1,0,100,0,100,0,0,469,24,30,12,17,25,1730,422,792,66,-1239,23,58,36,9,-10,-16,8815,1660,1062,4661,1661,375,288,312,1,1,3,149,65,608116,0
608138,656,-1832,367,-454,-100,2221,8659,446,-4,2979,1952,34987,159,38,127,0,0,1,0,1,0,100,0,100,0,0,469,26,30,12,20,25,1772,362,860,67,-1180,23,58,36,9,-10,-16,9010,1698,1064,4629,1661,375,288,322,1,1,3,149,65,608208,0
608148,484,-1919,312,-472,-35,2201,8872,473,19,3002,2016,34987,149,38,127,0,0,1,0,1,0,100,0,100,0,0,469,18,30,12,22,0,1814,406,928,67,-1115,23,58,36,9,-10,-16,9213,1744,1066,4674,1661,375,288,332,1,1,3,149,65,608208,0
608158,524,-1924,270,-478,-26,2155,9078,457,13,2965,2016,34987,152,38,127,0,0,1,0,1,0,100,0,100,0,0,469,23,30,12,25,0,1852,340,995,65,-1054,23,58,36,9,-10,-16,9393,1787,1068,4625,1661,375,288,342,1,1,3,149,65,608208,0
608168,387,-2001,299,-503,-119,2137,9276,421,-27,3010,1776,34982,156,39,127,0,0,1,0,1,0,100,0,100,0,0,469,20,30,12,27,-1,1897,390,1060,65,-993,23,58,36,9,-10,-16,9610,1829,1070,4706,1661,375,288,352,1,1,3,149,65,608208,0
608178,27,-1994,58,-423,-149,1932,9455,398,-57,2964,1872,34980,144,39,127,0,0,1,0,1,0,100,0,100,0,0,469,22,30,12,30,-1,1931,406,1121,58,-930,23,58,36,9,-10,-16,9773,1866,1072,4642,1661,375,288,362,1,1,3,149,65,608208,0
608188,4,-2114,-26,-360,-92,1788,9635,387,-28,3006,1776,34981,143,38,127,0,0,1,0,1,0,100,0,100,0,0,469,21,30,12,32,-1,1964,346,1178,54,-867,23,58,36,9,-10,-16,9932,1904,1074,4715,1661,375,288,372,1,1,3,149,65,608226,0
608198,-55,-2008,10,-296,-57,1495,9791,329,-51,2955,1632,34985,132,38,127,0,0,1,0,1,0,100,0,100,0,0,469,18,30,12,35,0,1995,329,1227,45,-810,23,58,36,9,-10,-16,10080,1937,1076,4643,1661,375,288,382,1,1,3,149,65,608226,0
608208,49,-2051,-87,-226,12,1288,9927,268,-89,3004,1384,34988,134,38,127,0,0,1,0,1,0,100,0,100,0,0,469,15,30,12,37,0,2017,236,1269,39,-760,23,58,36,9,-10,-16,10187,1965,1078,4728,1661,375,288,392,1,1,3,149,65,608226,0
608218,-5,-1901,-1,-153,141,926,10014,143,-138,2981,1152,34990,104,38,127,0,0,1,0,1,0,100,0,100,0,0,469,14,30,12,40,0,2032,137,1302,28,-720,23,58,36,9,-10,-16,10261,1983,1079,4696,1661,375,288,402,1,1,3,149,65,608226,0
608228,-83,-1971,99,-125,165,675,10036,3,-225,3030,824,34996,72,38,127,0,0,1,0,1,0,100,0,100,0,0,469,17,30,12,42,0,2033,-5,1326,20,-689,23,58,36,9,-10,-16,10267,1988,1079,4774,1661,375,288,412,1,1,3,149,65,608226,0
608238,-80,-2114,220,-141,244,383,10024,-15,-183,2926,920,35011,54,39,127,0,0,1,0,1,0,100,0,100,0,0,469,16,30,12,45,0,2042,27,1341,11,-664,23,58,36,9,-10,-16,10309,1985,1079,4613,1661,375,288,422,1,1,3,149,65,608226,0
608248,121,-2096,380,-204,280,271,10024,-22,-24,2977,848,35030,52,39,127,0,0,1,0,1,0,100,0,100,0,0,469,12,30,11,47,0,2030,-109,1350,8,-649,23,58,36,9,-10,-16,10251,1985,1079,4689,1661,375,288,432,1,1,3,149,65,608226,0
608258,205,-2020,433,-266,153,75,10012,-34,-8,2970,784,35049,50,39,127,0,0,1,0,1,0,100,0,100,0,0,469,12,30,11,50,0,2029,-43,1355,2,-642,23,58,36,9,-10,-16,10245,1983,1078,4678,1661,375,288,442,1,1,3,149,65,608309,0
608268,265,-1956,465,-374,-47,-33,9981,-93,-62,3022,488,35042,44,38,127,0,0,1,0,1,0,100,0,100,0,0,469,12,30,11,52,0,2015,-109,1355,-1,-643,23,58,36,9,-10,-16,10182,1976,1077,4756,1661,375,288,452,1,1,3,149,65,608309,0
608278,168,-2086,635,-445,-347,-306,9905,-199,-129,2976,376,35037,34,38,127,0,0,1,0,1,0,100,0,100,0,0,469,11,30,11,55,0,2005,-126,1349,-9,-650,23,58,36,9,-10,-16,10128,1960,1077,4680,1661,375,288,462,1,1,3,149,65,608309,0
608288,60,-2113,524,-479,-298,-538,9780,-305,-184,2975,272,35025,20,38,127,0,0,1,0,1,0,100,0,100,0,0,469,16,30,11,57,0,1979,-236,1336,-16,-659,23,58,36,9,-10,-16,10006,1934,1075,4670,1661,375,288,472,1,1,3,149,65,608309,0
608298,-5,-2195,502,-574,-41,-866,9623,-375,-150,2984,168,35029,14,38,127,0,0,1,0,1,0,100,0,100,0,0,469,15,30,11,60,1,1945,-335,1314,-26,-672,23,58,36,9,-10,-16,9842,1902,1073,4677,1661,375,288,482,1,1,3,149,65,608325,0
608308,35,-2101,291,-667,50,-1092,9427,-442,-135,2951,176,35037,-6,39,127,0,0,1,0,1,0,100,0,100,0,0,469,16,30,11,62,2,1900,-455,1283,-33,-695,23,58,36,9,-10,-16,9625,1861,1071,4614,1661,375,288,492,1,1,3,149,65,608364,0
608318,138,-2320,173,-665,89,-1266,9229,-423,-69,3011,176,35044,-6,38,127,0,0,1,0,1,0,100,0,100,0,0,469,13,30,11,65,4,1856,-455,1246,-38,-725,23,58,36,9,-10,-16,9414,1819,1068,4698,1661,375,288,502,1,1,3,149,65,608364,0
608328,162,-2301,338,-634,-97,-1353,9049,-390,41,3000,216,35056,-10,39,127,0,0,1,0,1,0,100,0,100,0,0,470,12,30,11,67,6,1820,-351,1206,-41,-761,23,58,36,9,-10,-16,9240,1781,1066,4672,1661,375,288,512,1,1,3,149,65,608364,0
608338,105,-2461,216,-718,-237,-1433,8908,-271,112,3036,368,35057,-5,38,127,0,0,1,0,1,0,100,0,100,0,0,477,15,30,11,70,9,1785,-296,1163,-43,-798,23,58,36,9,-10,-16,9071,1752,1064,4720,1661,375,288,522,1,1,3,149,65,608364,0
608348,73,-2560,458,-675,-133,-1452,8825,-138,197,3065,600,35059,-6,38,127,0,0,1,0,1,0,100,0,100,0,0,497,22,30,11,72,11,1764,-236,1119,-44,-837,23,58,36,9,-10,-16,8974,1734,1064,4761,1661,375,288,532,1,1,3,149,65,608376,0
608358,539,-2262,469,-706,-306,-1381,8804,-4,234,3159,952,35049,14,38,127,0,0,1,0,1,0,100,0,100,0,0,524,32,30,11,75,15,1754,-60,1076,-42,-881,23,58,36,9,-10,-16,8928,1730,1063,4906,1661,375,288,542,1,1,3,149,65,608376,0
608368,702,-2322,420,-745,-305,-1328,8821,42,187,3415,1088,35049,65,38,127,0,0,1,0,1,0,100,0,100,0,0,563,33,30,11,77,18,1757,21,1035,-40,-928,23,58,36,9,-10,-16,8943,1733,1063,5304,1661,375,288,552,1,1,3,149,65,608376,0
608378,565,-2300,193,-738,-329,-1229,8860,135,106,3574,1616,35032,99,38,127,0,0,1,0,1,0,100,0,100,0,0,601,33,30,11,80,23,1761,60,996,-37,-973,23,58,36,9,-10,-16,8958,1742,1064,5552,1661,375,288,562,1,1,3,149,65,608376,0
608388,800,-2593,263,-752,-386,-990,8990,370,235,3802,2456,35019,134,39,127,0,0,1,0,1,0,100,0,100,0,0,651,39,30,11,82,26,1786,274,962,-30,-1013,23,58,36,9,-10,-16,9076,1769,1064,5911,1661,375,288,572,1,1,3,149,65,608376,0
608398,709,-3096,312,-803,-692,-322,9311,871,572,4266,3872,34997,175,38,127,0,0,1,0,1,0,100,0,100,0,0,715,55,30,11,85,32,1848,675,944,-9,-1036,23,58,36,9,-10,-16,9377,1836,1068,6653,1661,375,288,582,1,1,3,149,65,608394,0
608408,666,-3170,255,-778,-1065,216,9897,1471,907,4721,5624,34975,279,38,127,0,0,1,0,1,0,100,0,100,0,0,882,77,30,11,87,36,1966,1197,943,6,-1040,23,58,36,9,-10,-16,9943,1959,1074,7407,1661,375,288,592,1,2,3,149,65,608426,0
608418,392,-3450,166,-744,-1926,1110,10796,2228,1124,5939,8144,34929,470,39,127,0,0,1,0,1,0,100,0,100,0,0,1147,109,30,11,90,43,2154,1944,965,33,-1020,23,58,36,9,-10,-16,10853,2140,1088,9436,1661,375,288,602,1,2,3,149,65,608441,0
608428,776,-2883,-82,-1317,-2466,1989,12144,3296,1504,7441,10984,34829,838,39,127,0,0,1,0,1,0,100,0,100,0,0,1431,144,30,11,92,49,2435,2889,1013,60,-972,23,58,36,9,-10,-16,12310,2404,1109,12056,1661,375,288,612,1,2,3,149,65,608441,0
608438,-484,-3810,9,-1372,-2119,3035,13948,4196,1754,8944,13912,34638,1427,39,127,0,0,1,0,1,0,100,0,100,0,0,1630,168,30,11,95,59,2771,3405,1094,92,-879,23,58,36,9,-10,-16,14066,2749,1132,14789,1661,375,288,622,1,2,3,149,65,608441,0
608448,-538,-3474,41,-991,-1731,3229,16048,4796,1386,9844,14672,34373,2248,38,127,0,0,1,0,1,0,100,0,100,0,0,1854,197,30,11,97,67,3155,3938,1192,98,-765,23,58,36,9,-10,-16,16063,3153,1149,16514,1661,375,288,632,1,2,3,149,65,608441,0
608458,-19,-2508,-305,-747,-1387,3088,18280,4909,767,10840,16168,34082,3136,39,127,0,0,1,0,1,0,100,0,100,0,0,2097,201,30,11,100,78,3570,4213,1287,94,-660,23,58,36,9,-10,-16,18230,3580,1158,18332,1661,375,288,642,1,2,3,149,65,608441,0
608468,201,-2818,-200,-537,-1281,3006,20544,5023,254,12398,16120,33824,3952,38,127,0,0,1,0,1,0,100,0,100,0,0,2196,199,30,11,102,87,3990,4163,1380,91,-562,23,58,36,9,-10,-16,20471,4002,1169,21175,1661,375,288,652,1,2,3,149,65,608459,0
608478,-572,-2709,-172,-452,-881,2786,22705,4594,-161,12172,14496,33630,4569,38,127,0,0,1,0,1,0,100,0,100,0,0,2176,205,30,11,105,99,4389,4048,1469,85,-463,23,58,36,9,-10,-16,22568,4411,1186,21079,1661,375,288,662,1,2,3,149,65,608478,0
608488,-1099,-2800,70,-386,-558,2274,24728,4427,-515,11927,13736,33531,4859,38,127,0,0,1,0,1,0,100,0,100,0,0,2156,200,30,11,107,107,4759,3625,1545,69,-366,23,58,36,9,-10,-16,24599,4785,1199,20883,1661,375,288,672,1,2,3,149,65,608479,0
608498,-1076,-3029,378,-419,-347,1943,26728,4407,-253,11561,14360,33516,4859,39,127,0,0,0,0,0,0,100,0,0,0,0,2058,195,5,11,1,119,5106,3499,1605,59,-280,2,4,5,16,61,60,26510,5145,1211,20446,1661,375,288,682,1,2,3,149,65,608479,0
608508,-936,-3178,750,-676,-503,1958,28830,4682,185,10145,12912,33566,4641,39,127,0,0,0,0,0,0,100,0,0,0,0,1258,208,5,11,3,127,5461,3576,1665,59,-200,2,4,6,16,68,63,28494,5521,1221,18089,1661,375,288,692,1,2,3,149,65,608509,0
608518,44,-3033,259,-712,-649,628,30635,3515,-434,5766,7640,33709,4134,39,127,0,0,0,0,0,0,100,0,0,0,0,458,214,5,11,6,138,5788,3235,1706,19,-148,2,5,6,19,72,70,30304,5845,1225,10315,1661,375,288,702,1,2,3,149,65,608509,0
608528,520,-3155,22,-579,-9,-1181,31550,1269,-2530,1622,-936,34013,3080,38,127,0,0,0,0,0,0,100,0,0,0,0,0,206,5,11,8,145,5971,1620,1693,-36,-164,2,6,7,21,64,74,31334,6011,1221,2893,1661,375,288,712,1,2,3,149,65,608509,0
608538,93,-1841,484,9,1345,-4884,31215,-1413,-4244,-766,-3848,34423,1734,38,127,0,0,0,0,0,0,100,0,0,0,0,0,146,5,11,11,157,5909,-917,1588,-149,-284,3,6,8,26,43,82,30986,5950,1223,0,1661,375,288,722,1,2,3,149,65,608527,0
608548,649,-2497,298,-787,1717,-5414,30236,-2520,-3512,-2059,-9664,34789,591,38,127,0,0,0,0,0,0,100,0,0,0,0,0,87,5,11,13,166,5729,-1933,1429,-165,-447,3,6,9,29,29,85,29975,5774,1225,0,1661,375,288,732,0,3,3,149,65,608544,0
608558,-4287,-3449,970,-576,-2352,-3565,28437,-4436,-2692,-2094,-9544,34912,337,38,127,0,0,0,0,0,0,100,0,0,0,0,0,88,5,30,16,180,5604,-884,1280,-108,-571,3,7,10,26,33,92,29290,5449,1224,0,1661,375,288,742,0,3,3,149,65,608544,0
608568,1387,-4934,601,-1175,-395,-2522,26569,-3716,-1594,1827,-4512,34918,361,39,127,0,0,0,0,0,0,100,0,0,0,0,0,209,5,30,18,189,5741,1444,1198,-76,-642,3,7,10,30,51,93,30042,5117,1225,3269,1661,375,288,752,0,3,3,149,65,608576,0
608578,177,-4537,967,-1260,1457,-4312,25519,-1862,1819,1557,-2216,34960,232,39,127,0,0,0,0,0,0,100,0,0,0,0,0,202,5,30,21,206,5716,-291,1079,-131,-766,4,8,12,32,54,111,29903,4930,1225,2785,1661,375,288,762,0,3,3,149,65,608576,0
608588,1168,-4105,678,-1432,1389,-5316,24890,-1230,2340,267,-1728,35017,28,38,127,0,0,0,0,0,0,100,0,0,0,0,0,162,5,30,23,220,5618,-1098,930,-162,-916,4,8,13,36,52,122,29369,4815,1224,477,1661,375,288,772,0,3,3,149,65,608576,0
608598,1006,-3568,711,-1875,757,-6410,24436,-946,994,-352,-2536,35081,-146,38,127,0,0,0,0,0,0,100,0,0,0,0,0,136,5,30,26,245,5445,-1702,743,-195,-1109,4,9,14,37,42,140,28407,4730,1220,0,1661,375,288,782,0,3,3,149,65,608591,0
608608,1281,-3726,516,-2030,174,-6588,23929,-1216,161,-1132,-3360,35050,-21,39,127,0,0,0,0,0,0,100,0,0,0,0,0,121,5,30,28,264,5275,-1702,545,-201,-1313,5,9,15,38,38,150,27455,4643,1216,0,1661,375,288,792,0,3,3,149,65,608614,0
608618,1115,-3655,403,-2027,-882,-6931,23290,-1454,-403,-847,-3760,35034,60,38,127,0,0,0,0,0,0,100,0,0,0,0,0,130,5,30,31,294,5121,-1565,337,-211,-1525,5,10,17,42,33,166,26596,4523,1211,0,1661,375,288,802,0,3,3,149,65,608614,0
608628,1152,-3545,447,-1991,-1566,-7094,22586,-1573,-352,-699,-3856,35024,100,38,127,0,0,0,0,0,0,100,0,0,0,0,0,135,5,30,33,316,4985,-1340,122,-216,-1740,6,10,19,45,31,175,25829,4389,1207,0,1661,375,288,812,0,3,3,149,65,608614,0
608638,1227,-3364,560,-1949,-2302,-7264,21872,-1574,33,-511,-3752,35015,102,39,127,0,0,0,0,0,0,100,0,0,0,0,0,145,5,30,36,352,4863,-1246,-97,-221,-1961,6,10,21,51,29,189,25166,4254,1203,0,1661,375,288,822,0,3,3,149,65,608627,0
608648,1311,-3239,504,-1967,-2612,-7312,21158,-1587,60,-378,-3536,35022,79,38,127,0,0,0,0,0,0,100,0,0,0,0,0,148,5,30,38,378,4746,-1164,-319,-223,-2184,7,10,23,56,29,198,24524,4118,1198,0,1661,375,288,832,0,3,3,149,65,608627,0
608658,1260,-3039,402,-1881,-2864,-7299,20446,-1555,-160,-281,-3416,35035,46,38,127,0,0,0,0,0,0,100,0,0,0,0,0,140,5,30,41,416,4621,-1279,-542,-222,-2406,7,11,25,63,30,209,23820,3983,1194,0,1661,375,288,842,0,3,3,149,65,608666,0
608668,1279,-2878,273,-1800,-2854,-7285,19751,-1529,33,-367,-3480,35042,37,38,127,0,0,0,0,0,0,100,0,0,0,0,0,127,5,30,43,440,4482,-1439,-765,-222,-2626,8,11,27,68,32,215,23062,3854,1189,0,1661,375,288,852,0,3,3,149,65,608666,0
608678,1293,-2507,129,-1641,-2618,-7348,19053,-1539,24,-510,-3768,35036,26,38,127,0,0,0,0,0,0,100,0,0,0,0,0,103,5,30,46,472,4305,-1818,-988,-224,-2848,9,12,29,75,36,223,22129,3721,1182,0,1661,375,288,862,0,3,3,149,65,608666,0
608688,1229,-2208,36,-1436,-2355,-7345,18311,-1683,-83,-739,-4408,35025,44,38,127,0,0,0,0,0,0,100,0,0,0,0,0,76,6,30,48,492,4097,-2175,-1212,-224,-3071,9,12,31,80,38,226,21039,3586,1173,0,1661,375,288,872,0,3,3,149,65,608677,0
608698,1041,-1773,-19,-1064,-1967,-7205,17463,-1951,-290,-888,-5288,35026,54,39,127,0,0,0,0,0,0,100,0,0,0,0,0,58,6,30,51,517,3834,-2625,-1435,-219,-3292,10,12,34,86,42,229,19644,3427,1165,0,1661,375,288,882,0,3,3,149,65,608744,0
608708,802,-1518,-20,-879,-1769,-6876,16444,-2378,-537,-1014,-6152,35020,108,38,127,0,0,0,0,0,0,100,0,0,0,0,0,55,6,30,53,531,3558,-2801,-1649,-209,-3500,11,13,36,90,45,228,18167,3230,1158,0,1661,375,288,892,0,3,3,149,65,608761,0
608718,292,-1172,-128,-717,-1532,-6033,15258,-2684,-663,-780,-6512,35008,155,38,127,0,0,0,0,0,0,100,0,0,0,0,0,67,6,30,56,546,3302,-2504,-1844,-184,-3680,12,13,38,94,53,222,16827,3000,1152,0,1661,375,288,902,0,3,3,149,65,608761,0
608728,78,-1061,-168,-579,-1361,-5346,14035,-2669,-405,-349,-6248,34997,171,38,127,0,0,0,0,0,0,100,0,0,0,0,0,58,6,30,58,551,3116,-1851,-2016,-163,-3823,13,14,40,95,59,215,15868,2765,1147,0,1661,375,288,912,0,3,3,149,65,608761,0
608738,41,-798,-378,-225,-684,-4424,12841,-2612,-1,-95,-5392,35000,135,38,127,0,0,0,0,0,0,100,0,0,0,0,0,48,7,30,61,0,2961,-1472,-2162,-135,-3933,14,15,43,97,69,202,15078,2541,1142,0,1661,375,288,922,0,3,3,149,65,608761,0
608748,81,-463,-323,-25,-46,-3937,11710,-2418,168,55,-4552,35018,78,38,127,0,0,0,0,0,0,100,0,0,0,0,0,53,7,30,63,-5,2811,-1510,-2288,-120,-4025,15,15,44,97,76,192,14276,2319,1134,91,1661,375,288,932,0,3,3,149,65,608761,0
608758,-185,-147,-148,688,670,-3103,10712,-2092,375,52,-4008,35034,38,39,127,0,0,0,0,0,0,100,0,0,0,0,0,69,7,30,66,-20,2660,-1521,-2393,-94,-4067,16,16,46,98,83,174,13472,2123,1125,85,1661,375,288,942,0,3,3,149,65,608761,0
608768,-376,229,-224,933,966,-2323,9852,-1812,527,3,-3656,35040,30,38,127,0,0,0,0,0,0,100,0,0,0,0,0,76,7,30,68,-35,2523,-1384,-2474,-70,-4011,17,17,48,100,88,160,12754,1949,1116,4,1661,375,288,952,0,3,3,149,65,608761,0
608778,-441,680,-227,1219,1204,-972,9090,-1620,456,-42,-3184,35036,27,38,127,0,0,0,0,0,0,100,0,0,0,0,0,87,8,30,71,-65,2414,-1065,-2520,-29,-3880,18,18,49,100,96,138,12204,1790,1108,0,1661,375,288,962,0,3,3,149,65,608761,0
608788,-287,948,-331,1392,1384,-70,8408,-1453,334,-32,-2680,35044,27,38,127,0,0,0,0,0,0,100,0,0,0,0,0,96,8,30,73,-91,2333,-851,-2533,-2,-3698,19,19,50,99,101,121,11783,1645,1101,0,1661,375,288,972,0,3,3,149,65,608777,0
608798,-348,976,-292,1697,1709,1215,7809,-1249,318,-10,-2080,35056,19,38,127,0,0,0,0,0,0,100,0,0,0,0,0,109,8,30,76,-135,2247,-829,-2512,37,-3476,20,20,52,97,107,96,11331,1515,1095,0,1661,375,288,982,0,4,3,149,65,608801,0
608808,-536,766,-241,1912,1866,2082,7310,-1037,348,-4,-1592,35061,27,38,127,0,0,0,0,0,0,100,0,0,0,0,0,124,8,30,78,-169,2177,-675,-2459,63,-3237,21,21,52,96,110,79,10965,1404,1089,0,1661,375,288,992,0,4,3,149,65,608801,0
608818,-534,682,-136,2012,2054,3314,6900,-846,357,1,-1048,35053,23,38,127,0,0,0,0,0,0,100,0,0,0,0,0,127,9,30,81,-223,2133,-406,-2372,101,-2979,22,22,53,95,117,54,10752,1307,1086,1,1661,375,288,1002,0,4,3,149,65,608826,0
608828,-452,558,-165,2155,2373,3959,6586,-619,356,16,-536,35039,17,38,127,0,0,0,0,0,0,100,0,0,0,0,0,129,9,30,83,-260,2110,-203,-2259,120,-2696,23,23,53,94,122,38,10640,1235,1084,25,1661,375,288,1012,0,4,3,149,65,608826,0
608838,-362,669,-378,2339,3076,4585,6368,-415,369,18,-240,35036,6,38,127,0,0,0,0,0,0,100,0,0,100,0,0,138,9,30,86,-319,2062,-499,-2127,139,-2386,24,25,54,94,129,17,10405,1191,1081,28,1661,375,288,1022,0,4,3,149,65,608826,0
608848,-288,605,-302,2390,3433,5043,6225,-258,329,-76,-192,35035,-6,38,127,0,0,0,0,0,0,100,0,0,100,0,0,147,9,30,88,-358,2019,-466,-1978,153,-2062,25,26,54,94,133,3,10198,1162,1078,0,1661,375,288,1032,0,4,3,149,65,608826,0
608858,-74,404,-147,2328,3711,5743,6127,-201,238,-168,-112,35045,-1,38,127,0,0,0,0,0,0,100,0,0,100,0,0,153,10,30,91,-416,1989,-263,-1811,175,-1717,26,27,54,92,140,-14,10054,1143,1075,0,1661,375,288,1042,0,4,3,149,65,608860,0
608868,46,275,-135,2305,3989,5977,6081,-41,177,-48,40,35047,-19,39,127,0,0,0,0,0,0,100,0,0,100,0,0,155,10,30,93,-453,1979,-120,-1631,182,-1626,27,29,54,91,144,-24,10006,1133,1075,0,1661,375,288,1052,0,4,3,149,65,608860,0
608878,343,352,-210,2278,4542,6043,6109,93,248,125,48,35050,-23,39,127,0,0,0,0,0,0,100,0,0,100,0,0,162,10,30,96,-505,1973,-159,-1447,184,-1573,28,30,53,89,148,-37,9974,1139,1075,196,1661,375,288,1062,0,4,3,149,65,608860,0
608888,623,476,-260,2210,4841,6059,6148,64,165,59,56,35039,-11,38,127,0,0,0,0,0,0,100,0,0,100,0,0,163,10,30,98,-536,1958,-126,-1263,184,-1504,28,32,53,88,150,-44,9906,1147,1074,92,1661,375,288,1072,0,4,3,149,65,608876,0
608898,1001,722,-234,2001,5039,5956,6161,25,-46,307,168,35035,2,39,127,0,0,0,0,0,0,100,0,0,100,0,0,157,10,30,101,-579,1954,-43,-1079,181,-1431,29,33,52,85,150,-54,9884,1149,1074,481,1661,375,288,1082,0,4,3,149,65,608910,0
608908,1292,785,-256,1860,4969,5706,6201,130,-4,404,232,35030,19,39,127,0,0,0,0,0,0,100,0,0,100,0,0,148,11,30,103,-604,1953,10,-902,174,-1363,30,35,52,82,147,-60,9879,1157,1073,633,1661,375,288,1092,0,4,3,149,65,608910,0
608918,1693,648,-149,1628,4702,5125,6280,196,137,281,232,35031,12,39,127,0,0,0,0,0,0,100,0,0,100,0,0,133,11,30,106,-638,1951,27,-738,156,-1301,31,36,51,77,138,-67,9869,1173,1073,440,1661,375,288,1102,0,4,3,149,65,608910,0
608928,1959,598,-139,1462,4507,4672,6379,207,120,216,216,35029,1,38,127,0,0,0,0,0,0,100,0,0,100,0,0,128,11,30,108,-657,1951,16,-590,142,-1249,32,37,50,74,129,-71,9869,1193,1073,338,1661,375,288,1112,0,4,3,149,65,608910,0
608938,2298,502,-138,1213,4221,3991,6475,218,26,231,200,35029,-17,38,127,0,0,0,0,0,0,100,0,0,100,0,0,125,11,30,111,-682,1954,32,-460,121,-1210,32,39,49,70,114,-76,9884,1213,1074,362,1661,375,288,1122,0,4,3,149,65,608926,0
608948,2392,537,-138,1036,4013,3515,6574,215,-1,201,184,35038,-5,39,127,0,0,0,0,0,0,100,0,0,100,0,0,120,20,30,113,-697,1947,-71,-347,107,-1187,33,40,49,67,103,-80,9853,1233,1073,315,1661,375,288,1132,0,4,3,149,65,608926,0
608958,2601,526,-116,752,3695,2754,6667,205,0,147,176,35041,-3,39,127,0,0,0,0,0,0,100,0,0,100,0,0,114,20,30,116,-716,1954,54,-253,84,-1184,34,41,48,62,84,-85,9884,1251,1074,230,1661,375,288,1142,0,4,3,149,65,608960,0
608968,11648,-3357,1284,1225,1727,-2797,6781,237,40,-455,-856,35053,19,38,127,0,0,0,0,0,0,100,0,0,100,0,0,215,20,30,118,-727,1729,-2801,-265,-85,-1264,34,41,47,60,58,-85,8810,1278,1062,0,1661,375,288,1152,0,4,3,149,65,608960,0
608978,9217,-2005,481,2264,-745,-4527,6403,-1569,-747,-6431,-11360,35047,23,38,127,0,0,0,0,0,0,100,0,0,200,0,0,368,21,30,121,0,1411,-2933,-81,-138,-1452,35,41,46,71,-38,-49,7329,1198,1060,0,21529,13138,289,6,1,0,3,128,113,608960,0
608988,3844,618,-655,1164,1114,-2729,4395,-5011,-4146,-2619,-9456,34862,656,39,127,0,0,0,0,0,0,100,0,0,200,0,0,294,21,30,123,5,1120,-2889,-189,-83,-1635,36,41,46,69,-67,-34,6019,774,1082,0,21529,13138,289,16,1,0,3,128,113,608978,0
608998,403,-2419,-248,-1170,-3421,-825,2558,-3112,-2994,4636,-2168,34824,690,39,127,0,0,0,0,0,0,100,0,0,200,0,0,198,21,30,126,16,911,-2136,-229,-25,-1756,36,40,46,47,-73,-40,5052,422,1104,7475,21529,13138,289,26,1,0,3,128,113,609010,0
609008,1713,-6412,-772,-1504,-1917,-1048,1974,-682,2981,3086,576,34881,492,38,127,0,0,0,0,0,0,100,0,0,200,0,0,147,22,30,128,23,753,-1576,-255,-31,-1772,37,39,45,35,-73,-40,4290,318,1130,5092,21529,13138,289,36,1,0,3,128,113,609010,0
609018,804,-6624,120,-1641,-115,-481,1978,-150,3581,-624,1352,35016,21,38,127,0,0,0,0,0,0,100,0,0,200,0,0,197,22,30,131,40,693,-313,-277,-14,-1767,37,38,45,23,-49,-23,3980,319,1143,0,21529,13138,289,46,1,0,3,128,113,609026,0
609028,-340,-3603,189,-1418,229,-340,2265,891,1516,1413,1928,35097,-196,38,127,0,0,0,0,0,0,100,0,0,200,0,0,161,22,30,133,57,688,71,-289,-10,-1758,37,38,45,20,-31,-7,3957,370,1144,2360,21529,13138,289,56,1,0,3,128,113,609028,0
609038,1449,-2708,1210,-912,381,-470,2659,846,805,254,1728,35023,26,38,127,0,0,0,0,0,0,100,0,0,200,0,0,105,23,30,136,87,720,368,-304,-14,-1767,37,38,45,21,-21,0,4121,440,1137,421,21529,13138,289,66,1,0,3,128,113,609028,0
609048,1679,-888,1198,-856,-188,-323,3026,780,103,240,1416,35016,45,39,127,0,0,1,0,0,1,100,0,0,200,0,0,94,23,30,138,109,748,346,-318,-9,-1813,37,38,45,21,-21,0,4262,507,1131,396,21529,13138,289,76,1,0,3,128,113,609048,0
609058,2242,-579,-345,-759,-993,479,3358,703,-123,300,1368,35029,33,38,127,0,0,1,0,0,1,100,0,0,200,0,0,70,23,30,141,133,775,340,-318,14,-1869,37,38,45,21,-21,0,4403,572,1125,493,21529,13138,289,86,1,1,3,128,113,609048,0
609068,1725,153,-1041,-427,-917,618,3674,710,-95,405,1792,35046,26,38,127,0,0,1,0,0,1,100,0,0,200,0,171,65,24,30,143,143,802,203,-300,18,-1920,37,38,45,21,-21,0,4535,634,1120,662,21529,13138,289,96,1,1,3,128,113,609059,0
609078,13,-977,-1289,-454,-691,895,4066,969,109,1139,3016,35036,36,38,127,0,0,1,0,0,1,100,0,0,200,0,271,65,24,30,146,154,809,76,-279,27,-1942,37,38,45,21,-21,0,4571,710,1119,1861,21529,13138,289,106,1,1,3,128,113,609076,0
609088,770,-3257,-313,-623,-1575,1656,4596,1186,435,1870,3312,35021,56,38,127,0,0,1,0,0,1,100,0,0,200,0,325,54,24,30,148,160,875,818,-244,50,-1907,37,38,45,21,-21,0,4881,816,1109,3029,21529,13138,289,116,1,1,3,128,113,609095,0
609098,2448,-1436,438,-380,-884,1837,5045,869,113,2021,2312,34995,85,38,127,0,0,1,0,0,1,100,0,0,200,0,317,72,25,30,151,166,964,961,-186,56,-1874,37,38,45,21,-21,0,5300,913,1096,3236,21529,13138,289,126,1,1,3,128,113,609098,0
609108,1466,-1289,416,-143,-1732,1496,5264,316,-613,1936,1144,34985,132,38,127,0,0,1,0,0,1,100,0,0,200,0,329,75,25,30,153,0,1038,708,-136,45,-1852,37,38,45,21,-21,0,5641,960,1089,3078,21529,13138,289,136,1,1,3,128,113,609110,0
609118,199,-2007,105,344,-34,931,5301,20,-814,2137,512,34980,128,38,127,0,0,1,0,0,1,100,0,0,200,0,331,48,25,30,156,-4,1053,142,-100,28,-1821,37,38,45,21,-21,0,5712,968,1087,3394,21529,13138,289,146,1,1,3,128,113,609110,0
609128,629,-1403,-163,248,567,722,5306,29,-408,2045,552,34996,84,39,127,0,0,1,0,0,1,100,0,0,200,0,331,43,26,30,158,-8,1052,-27,-76,22,-1795,37,38,45,21,-21,0,5707,969,1088,3248,21529,13138,289,156,1,1,3,128,113,609126,0
609138,1345,-1865,-183,353,1399,880,5318,28,-23,2058,568,35012,39,38,127,0,0,1,0,0,1,100,0,0,200,0,331,50,26,30,161,-16,1039,-126,-52,26,-1786,37,38,45,21,-21,0,5646,972,1089,3272,21529,13138,289,166,1,1,3,128,113,609126,0
609148,1218,-1814,351,433,1317,968,5338,50,29,2038,680,35024,10,38,127,0,0,1,0,0,1,100,0,0,200,0,331,50,26,30,163,-20,1030,-115,-23,29,-1774,37,38,45,21,-21,0,5606,976,1089,3242,21529,13138,289,176,1,1,3,128,113,609169,0
609158,1455,-1891,1012,300,422,1257,5396,159,84,2008,1000,35028,27,38,127,0,0,1,0,0,1,100,0,0,200,0,331,48,27,30,166,-24,1043,126,9,38,-1759,37,38,45,21,-21,0,5666,988,1088,3191,21529,13138,289,186,1,1,3,128,113,609170,0
609168,1324,-2134,840,268,148,1509,5519,325,206,1959,1624,35029,41,39,127,0,0,1,0,0,1,100,0,0,200,0,331,41,27,30,168,0,1070,302,52,46,-1733,37,38,45,21,-21,0,5787,1015,1086,3108,21529,13138,289,196,1,1,3,128,113,609175,0
609178,1175,-2038,507,112,-69,1968,5760,612,367,2049,2256,35020,55,39,127,0,0,1,0,1,1,100,0,100,200,0,331,27,27,30,171,0,1128,576,106,60,-1691,37,38,45,21,-21,0,6054,1066,1082,3237,21529,13138,289,206,1,1,3,128,113,609176,0
609188,1328,-1870,569,37,-211,2263,6101,805,421,2105,2704,35004,89,39,127,0,0,1,0,1,1,100,0,100,200,0,332,21,28,27,2,0,1203,785,172,69,-1644,37,38,45,21,-21,0,6395,1137,1076,3307,21529,13138,289,216,1,1,3,128,113,609176,0
609198,1330,-1753,688,-4,-713,2556,6499,885,281,2123,2776,34994,114,39,127,0,0,1,0,1,1,100,0,100,200,0,343,25,28,27,5,0,1302,966,247,78,-1590,37,38,45,21,-21,0,6841,1217,1068,3310,21529,13138,289,226,1,1,3,128,113,609176,0
609208,1236,-1513,629,-66,-750,2623,6899,876,90,2196,2712,34990,157,38,127,0,0,1,0,1,1,100,0,100,200,0,356,25,28,27,7,1,1399,1010,326,80,-1535,37,38,45,21,-21,0,7273,1306,1060,3400,21529,13138,289,236,1,1,3,128,113,609227,0
609218,964,-1507,396,-302,-617,2627,7275,806,-47,2293,2552,34985,174,38,127,0,0,1,0,1,1,100,0,100,200,0,364,14,29,19,10,3,1482,867,406,80,-1472,37,38,45,21,-21,0,7658,1396,1059,3547,21529,13138,289,246,1,1,3,128,113,609227,0
609228,669,-1690,369,-328,-302,2533,7612,713,-126,2328,2168,34977,176,39,127,0,0,1,0,1,1,100,0,100,200,0,364,14,29,10,12,5,1553,736,485,77,-1407,37,38,45,21,-21,0,7991,1472,1058,3598,21529,13138,289,256,1,1,3,128,113,609227,0
609238,553,-1634,306,-311,46,2286,7894,585,-182,2344,1976,34972,167,39,127,0,0,1,0,1,1,100,0,100,200,0,364,13,29,10,15,7,1611,598,558,69,-1343,37,38,45,21,-21,0,8263,1533,1058,3623,21529,13138,289,266,1,1,3,128,113,609227,0
609248,568,-1882,332,-352,164,2178,8130,489,-191,2355,1760,34975,146,39,127,0,0,1,0,1,1,100,0,100,200,0,364,19,30,10,17,8,1658,494,626,66,-1280,37,38,45,21,-21,0,8483,1585,1060,3646,21529,13138,289,276,1,1,3,128,113,609227,0
609258,584,-2014,324,-388,230,2079,8346,495,-119,2297,1880,34986,135,38,127,0,0,1,0,1,1,100,0,100,200,0,364,18,30,10,20,9,1698,406,689,63,-1223,37,38,45,21,-21,0,8667,1631,1061,3561,21529,13138,289,286,1,1,3,128,113,609263,0
609268,809,-2065,352,-386,226,2123,8588,556,33,2301,2168,35000,133,38,127,0,0,1,0,1,1,100,0,100,200,0,364,18,30,10,22,9,1742,417,753,64,-1165,37,38,45,21,-21,0,8871,1683,1063,3572,21529,13138,289,296,1,1,3,128,113,609263,0
609278,647,-2106,391,-375,-8,2238,8879,680,153,2356,2312,35001,142,38,127,0,0,1,0,1,1,100,0,100,200,0,364,16,30,10,25,0,1800,576,819,68,-1105,37,38,45,21,-21,0,9144,1746,1065,3665,21529,13138,289,306,1,1,3,128,113,609263,0
609288,618,-1859,368,-362,-285,2329,9214,763,183,2339,2592,34992,144,38,127,0,0,1,0,1,1,100,0,100,200,0,365,12,30,10,27,0,1868,736,889,71,-1045,37,38,45,21,-21,0,9472,1816,1069,3651,21529,13138,289,316,1,1,3,128,113,609292,0
609298,471,-1917,317,-315,-504,2381,9581,821,141,2336,2640,34988,143,38,127,0,0,1,0,1,1,100,0,100,200,0,368,9,30,6,30,0,1945,791,961,72,-982,37,38,45,21,-21,0,9842,1893,1073,3661,21529,13138,289,326,1,1,3,128,113,609294,0
609308,406,-1774,247,-412,-656,2317,9959,833,71,2356,2624,34984,165,38,127,0,0,1,0,1,0,100,0,100,0,0,378,9,30,6,32,0,2026,834,1033,70,-913,37,38,45,21,-21,0,10235,1972,1078,3710,21529,13138,289,336,1,1,3,128,113,609299,0
609318,169,-1956,257,-353,-434,2134,10323,787,-14,2386,2416,34979,168,38,127,0,0,1,0,1,0,100,0,100,0,0,387,9,30,6,35,1,2100,763,1100,65,-848,37,38,45,21,-21,0,10592,2048,1084,3777,21529,13138,289,346,1,1,3,128,113,609327,0
609328,134,-1872,142,-359,-290,1876,10645,669,-116,2436,2312,34976,176,38,127,0,0,1,0,1,0,100,0,100,0,0,396,8,30,6,37,1,2165,565,1161,57,-783,37,38,45,21,-21,0,10906,2110,1089,3873,21529,13138,289,356,1,1,3,128,113,609327,0
609338,228,-1888,168,-280,-33,1502,10913,531,-188,2448,1944,34975,164,38,127,0,0,1,0,1,0,100,0,100,0,0,402,7,30,5,40,2,2219,521,1212,45,-727,37,38,45,21,-21,0,11181,2162,1093,3906,21529,13138,289,366,1,1,3,128,113,609327,0
609348,228,-1826,68,-285,69,1264,11101,371,-258,2524,1448,34985,148,39,127,0,0,1,0,1,0,100,0,100,0,0,402,7,30,5,42,3,2255,384,1253,38,-686,37,38,45,21,-21,0,11372,2198,1095,4038,21529,13138,289,376,1,1,3,128,113,609327,0
609358,218,-1823,124,-240,144,956,11233,245,-253,2535,1200,34989,136,38,127,0,0,1,0,1,0,100,0,100,0,0,403,8,30,5,45,3,2277,208,1286,29,-655,37,38,45,21,-21,0,11488,2224,1097,4062,21529,13138,289,386,1,1,3,128,113,609360,0
609368,270,-1906,151,-195,177,756,11315,151,-211,2496,1120,35004,110,38,127,0,0,1,0,1,0,100,0,100,0,0,403,14,30,5,47,0,2286,93,1311,23,-630,37,38,45,21,-21,0,11534,2241,1098,4002,21529,13138,289,396,1,1,3,128,113,609360,0
609378,245,-1975,336,-170,82,555,11380,130,-119,2537,944,35010,111,39,127,0,0,1,0,1,0,100,0,100,0,0,403,10,30,5,50,0,2302,109,1330,16,-610,37,38,45,21,-21,0,11621,2253,1099,4072,21529,13138,289,406,1,1,3,128,113,609360,0
609388,269,-1922,333,-188,-18,408,11412,27,-94,2554,672,35018,105,39,127,0,0,1,0,1,0,100,0,100,0,0,403,6,30,5,52,-1,2307,54,1345,12,-597,37,38,45,21,-21,0,11644,2260,1099,4101,21529,13138,289,416,1,1,3,128,113,609377,0
609398,-22,-2051,232,-175,-40,132,11402,-22,-148,2503,608,35019,93,39,127,0,0,1,0,1,0,100,0,100,0,0,403,9,30,5,55,-2,2304,-54,1352,4,-587,37,38,45,21,-21,0,11632,2258,1099,4018,21529,13138,289,426,1,1,3,128,113,609392,0
609408,52,-2051,334,-189,-62,13,11402,5,-43,2511,640,35018,88,39,127,0,0,1,0,1,0,100,0,100,0,0,403,5,30,5,57,-2,2306,-10,1354,0,-579,37,38,45,21,-21,0,11638,2258,1099,4031,21529,13138,289,436,1,1,3,128,113,609411,0
609418,92,-2044,351,-274,-270,-227,11395,-22,6,2520,584,35026,72,38,127,0,0,1,0,1,0,100,0,100,0,0,406,5,30,5,60,-3,2301,-60,1350,-6,-580,37,38,45,21,-21,0,11615,2256,1099,4045,21529,13138,289,446,1,1,3,128,113,609411,0
609428,13,-2074,356,-301,-335,-403,11373,-54,-45,2544,528,35017,69,38,127,0,0,1,0,1,0,100,0,100,0,0,414,6,30,5,62,-3,2303,-5,1340,-12,-585,37,38,45,21,-21,0,11626,2252,1099,4084,21529,13138,289,456,1,1,3,128,113,609411,0
609438,-28,-1999,333,-296,-357,-740,11326,-134,-77,2614,456,35020,57,39,127,0,0,1,0,1,0,100,0,100,0,0,427,7,30,5,65,0,2296,-43,1322,-22,-597,37,38,45,21,-21,0,11586,2243,1099,4194,21529,13138,289,466,1,1,3,128,113,609428,0
609448,131,-2046,293,-345,-294,-962,11236,-242,-147,2720,240,35022,59,39,127,0,0,1,0,1,0,100,0,100,0,0,441,8,30,5,67,0,2282,-98,1295,-29,-619,37,38,45,21,-21,0,11517,2225,1098,4360,21529,13138,289,476,1,1,3,128,113,609461,0
609458,156,-1982,298,-365,-8,-1376,11063,-434,-253,2758,136,35031,57,38,127,0,0,1,0,1,0,100,0,100,0,0,452,6,30,5,70,1,2247,-324,1258,-41,-653,37,38,45,21,-21,0,11331,2191,1095,4410,21529,13138,289,486,1,1,3,128,113,609493,0
609468,322,-1845,211,-384,183,-1557,10842,-508,-249,2810,104,35038,35,39,127,0,0,1,0,1,0,100,0,100,0,0,453,4,30,4,72,1,2193,-494,1212,-47,-699,37,38,45,21,-21,0,11048,2148,1091,4476,21529,13138,289,496,1,1,3,128,113,609493,0
609478,655,-1974,296,-424,179,-1600,10598,-536,-120,2822,88,35040,3,39,127,0,0,1,0,1,0,100,0,100,0,0,453,4,30,4,75,2,2144,-510,1164,-48,-757,37,38,45,21,-21,0,10805,2101,1087,4480,21529,13138,289,506,1,1,3,128,113,609499,0
609488,600,-2160,430,-498,-35,-1499,10381,-450,23,2874,144,35045,-25,39,127,0,0,1,0,1,0,100,0,100,0,0,454,4,30,3,77,3,2098,-411,1117,-45,-812,37,38,45,21,-21,0,10581,2060,1084,4548,21529,13138,289,516,1,1,3,128,113,609499,0
609498,528,-2459,634,-546,-208,-1296,10230,-270,190,2872,352,35047,-25,39,127,0,0,1,0,1,0,100,0,100,0,0,459,8,30,3,80,4,2067,-285,1074,-39,-860,37,38,45,21,-21,0,10432,2028,1081,4536,21529,13138,289,526,1,1,3,128,113,609499,0
609508,559,-2516,656,-549,-268,-1088,10185,-18,346,2813,976,35043,-4,39,127,0,0,1,0,1,0,100,0,100,0,0,476,20,30,3,82,5,2053,-87,1038,-33,-900,37,38,45,21,-21,0,10363,2019,1080,4438,21529,13138,289,536,1,1,3,128,113,609499,0
609518,923,-2183,463,-674,-257,-850,10221,105,359,3025,1144,35034,20,39,127,0,0,1,0,1,0,100,0,100,0,0,506,31,30,3,85,7,2059,-10,1009,-25,-939,37,38,45,21,-21,0,10395,2026,1081,4775,21529,13138,289,546,1,1,3,128,113,609509,0
609528,891,-2115,232,-770,-35,-751,10279,146,175,3174,1536,35037,51,39,127,0,0,1,0,1,0,100,0,100,0,0,536,29,30,3,87,9,2066,27,985,-22,-977,37,38,45,21,-21,0,10427,2038,1081,5012,21529,13138,289,556,1,1,3,128,113,609578,0
609538,890,-2874,245,-667,95,-433,10410,360,190,3330,2096,35030,98,39,127,0,0,1,0,1,0,100,0,100,0,0,561,24,30,3,90,12,2078,126,968,-13,-1003,37,38,45,21,-21,0,10485,2065,1082,5263,21529,13138,289,566,1,1,3,128,113,609578,0
609548,1020,-2744,353,-524,-467,-157,10674,703,423,3509,3184,35013,160,39,127,0,0,1,0,1,0,100,0,100,0,0,603,38,30,3,92,14,2128,527,959,-4,-1020,37,38,45,21,-21,0,10725,2116,1086,5565,21529,13138,289,576,1,1,3,128,113,609595,0
609558,1399,-3053,303,-578,-1001,672,11149,1198,681,3890,4440,34986,231,39,127,0,0,1,0,1,0,100,0,100,0,0,699,59,30,3,95,20,2217,977,970,20,-1023,37,38,45,21,-21,0,11169,2208,1092,6207,21529,13138,289,586,1,1,3,128,113,609598,0
609568,639,-4052,27,-656,-1923,1381,11888,1835,931,4566,6496,34940,327,39,127,0,0,1,0,1,0,100,0,100,0,0,939,82,30,3,97,24,2389,1746,1003,42,-996,37,38,45,21,-21,0,12076,2354,1106,7374,21529,13138,289,596,1,2,3,128,113,609600,0
609578,-595,-3286,-318,-1039,-2046,2395,13077,3000,1421,5998,10120,34879,526,39,127,0,0,1,0,1,0,100,0,100,0,0,1144,123,30,3,100,33,2619,2318,1063,73,-927,37,38,45,21,-21,0,13248,2587,1123,9835,21529,13138,289,606,1,2,3,128,113,609601,0
609588,-608,-4271,126,-1177,-2187,3255,14847,4257,2044,7050,13768,34750,964,39,127,0,0,1,0,1,0,100,0,100,0,0,1424,156,30,3,102,40,2950,3466,1153,99,-821,37,38,45,21,-21,0,15019,2922,1141,11751,21529,13138,289,616,1,2,3,128,113,609601,0
609598,-648,-4053,244,-979,-2472,4119,17200,5539,2232,8672,17120,34538,1690,39,127,0,0,1,0,1,0,100,0,100,0,0,1761,211,30,3,105,52,3376,4317,1270,125,-692,37,38,45,21,-21,0,17210,3376,1154,14611,21529,13138,289,626,1,2,3,128,113,609601,0
609608,-1056,-3808,33,-558,-2484,4697,19996,6449,1948,10239,19376,34218,2758,38,127,0,0,1,0,1,0,100,0,100,0,0,2104,239,30,3,107,62,3899,5361,1406,143,-534,37,38,45,21,-21,0,19988,3901,1167,17447,21529,13138,289,636,1,2,3,128,113,609601,0
609618,-1533,-2628,-9,-167,-1633,4543,23005,6552,1179,11918,20616,33828,4041,38,127,0,0,1,0,1,0,100,0,100,0,0,2208,260,30,3,110,78,4451,5498,1545,138,-367,37,38,45,21,-21,0,22899,4468,1188,20678,21529,13138,289,646,1,2,3,128,113,609610,0
609628,-1038,-2396,136,-255,-1181,3848,25957,6343,158,12065,19048,33451,5231,39,127,0,0,1,0,1,0,100,0,100,0,0,2188,264,30,3,112,89,4969,4993,1671,117,-212,37,38,45,21,-21,0,25736,5009,1207,21264,21529,13138,289,656,1,2,3,128,113,609660,0
609638,-600,-3390,301,-488,-933,2815,28614,5664,-1301,11254,14384,33229,5908,38,127,0,0,1,0,1,0,100,0,100,0,0,1544,231,30,3,115,105,5417,4411,1771,85,-93,37,38,45,21,-21,0,28247,5481,1220,20048,21529,13138,289,666,1,2,3,128,113,609660,0
609648,-261,-3408,455,-470,-716,1539,30614,3730,-1423,7093,7800,33259,5661,38,127,0,0,1,0,1,0,100,0,100,0,0,744,233,30,3,117,116,5775,3499,1834,46,-23,37,38,45,21,-21,0,30230,5842,1225,12691,21529,13138,289,676,1,2,3,128,113,609660,0
609658,766,-3109,67,-332,576,-1767,31520,1219,-2779,2948,784,33650,4226,39,127,0,0,1,0,1,0,100,0,100,0,0,0,202,30,3,120,133,5960,1664,1823,-53,-35,37,38,45,21,-21,0,31271,6006,1222,5259,21529,13138,289,686,1,2,3,128,113,609660,0
609668,1197,-2349,959,125,1477,-3805,31250,-1221,-4406,208,-2088,34193,2370,38,127,0,0,1,0,1,0,100,0,100,0,0,0,162,30,3,122,145,5913,-681,1732,-116,-145,37,38,45,21,-21,0,31010,5956,1222,371,21529,13138,289,696,1,2,3,128,113,609660,0
609678,722,-1578,-223,-621,2127,-5177,30432,-1997,-3349,-316,-7024,34687,806,38,127,0,0,1,0,1,0,100,0,100,0,0,0,64,30,3,125,162,5764,-1571,1586,-157,-301,37,38,45,21,-21,0,30168,5809,1225,0,21529,13138,289,706,0,3,3,128,113,609660,0
609688,-86,-1976,-330,-1251,2137,-4761,28960,-3930,-2175,-3823,-10192,34913,215,39,127,0,0,1,0,1,0,100,0,100,0,0,0,81,30,3,127,171,5593,-1719,1434,-145,-457,37,38,45,21,-21,0,29230,5544,1224,0,21529,13138,289,716,0,3,3,128,113,609692,0
609698,2355,-4432,1330,-1502,-477,-2662,27024,-4099,-2320,563,-5872,34913,336,39,127,0,0,1,0,1,0,100,0,100,0,0,0,138,30,3,130,184,5718,1631,1335,-81,-526,37,38,45,21,-21,0,29915,5197,1225,1007,21529,13138,289,726,0,3,3,128,113,609692,0
609708,2741,-6018,658,-1605,-352,-4182,25769,-2137,453,2548,-2120,34943,251,39,127,0,0,1,0,1,0,100,0,100,0,0,0,197,5,3,132,193,5782,499,1227,-127,-651,37,38,45,21,-21,0,30267,4975,1225,4558,21529,13138,289,736,0,3,3,128,113,609692,0
609718,998,-6083,1247,-1139,-1440,-5838,25144,-1153,2643,558,-1112,34973,128,39,127,0,0,1,0,1,0,100,0,100,0,0,0,223,5,3,135,214,5727,-637,1069,-178,-809,37,38,45,21,-21,0,29963,4862,1225,998,21529,13138,289,746,0,3,3,128,113,609709,0
609728,1431,-5314,1288,-1309,-1751,-7161,24762,-747,1638,-106,-1824,35060,-151,39,127,0,0,1,0,1,0,100,0,100,0,0,0,213,5,3,137,233,5577,-1658,866,-218,-1016,37,38,45,21,-21,0,29146,4791,1223,0,21529,13138,289,756,0,3,3,128,113,609727,0
609738,1666,-4517,1131,-1772,-2655,-7546,24376,-977,452,-1210,-2880,35056,-83,38,127,0,0,0,0,0,0,100,0,0,0,0,0,184,5,3,1,266,5405,-1686,637,-230,-1251,1,7,13,14,8,168,28179,4720,1219,0,21529,13138,289,766,0,3,3,128,113,609743,0
609748,1464,-4227,647,-1777,-3325,-7875,23814,-1333,-368,-1083,-3568,35025,40,38,127,0,0,0,0,0,0,100,0,0,0,0,0,171,5,3,3,291,5233,-1730,401,-240,-1493,1,7,14,18,6,183,27223,4623,1215,0,21529,13138,289,776,0,3,3,128,113,609743,0
609758,1208,-3407,315,-1870,-4562,-8080,23136,-1533,-562,-805,-3800,35004,80,39,127,0,0,0,0,0,0,100,0,0,0,0,0,174,5,3,6,335,5095,-1362,156,-246,-1740,1,7,17,24,1,203,26448,4493,1211,0,21529,13138,289,786,0,3,3,128,113,609743,0
609768,1245,-3179,366,-2007,-5122,-8120,22432,-1548,-274,-557,-3640,34994,99,39,127,0,0,0,0,0,0,100,0,0,0,0,0,174,5,3,8,367,4989,-1010,-91,-247,-1990,1,7,18,27,0,214,25854,4360,1207,0,21529,13138,289,796,0,3,3,128,113,609777,0
609778,1236,-3335,430,-2142,-5529,-8061,21756,-1451,2,-310,-3240,35002,86,38,127,0,0,0,0,0,0,100,0,0,0,0,0,182,5,3,11,419,4906,-802,-338,-246,-2236,2,7,21,31,1,228,25397,4232,1204,0,21529,13138,289,806,0,3,3,128,113,609777,0
609788,1182,-3395,451,-2220,-5670,-8094,21123,-1362,149,-181,-2816,35012,67,38,127,0,0,0,0,0,0,100,0,0,0,0,0,189,5,3,13,455,4824,-780,-584,-247,-2479,2,7,23,35,3,236,24952,4111,1201,0,21529,13138,289,816,0,3,3,128,113,609777,0
609798,989,-3229,457,-2184,-5486,-8077,20539,-1255,174,-167,-2608,35018,40,39,127,0,0,0,0,0,0,100,0,0,0,0,0,179,5,30,16,505,4727,-977,-831,-246,-2717,2,7,26,43,8,249,24418,4001,1198,0,21529,13138,289,826,0,3,3,128,113,609777,0
609808,908,-2990,347,-2146,-5001,-8165,19994,-1194,163,-377,-2864,35024,31,39,127,0,0,0,0,0,0,100,0,0,0,0,0,162,5,30,18,534,4579,-1565,-1079,-249,-2953,3,8,28,49,14,255,23577,3900,1192,0,21529,13138,289,836,0,3,3,128,113,609861,0
609818,702,-2340,160,-1938,-3831,-8318,19399,-1395,-12,-919,-3880,35028,37,38,127,0,0,0,0,0,0,100,0,0,0,0,0,102,5,30,21,572,4343,-2433,-1331,-253,-3192,3,8,31,58,23,261,22331,3786,1184,0,21529,13138,289,846,0,3,3,128,113,609877,0
609828,306,-1916,33,-1648,-3123,-8193,18621,-1861,-452,-1269,-5208,35020,59,39,127,0,0,0,0,0,0,100,0,0,0,0,0,71,5,30,23,592,4053,-2993,-1583,-250,-3423,4,8,33,63,29,262,20807,3642,1172,0,21529,13138,289,856,0,3,3,128,113,609880,0
609838,-213,-1332,-176,-1052,-2303,-7590,17616,-2370,-794,-1260,-6528,34995,114,39,127,0,0,0,0,0,0,100,0,0,0,0,0,87,5,30,26,615,3733,-3235,-1824,-231,-3630,5,8,36,71,41,256,19105,3456,1162,0,21529,13138,289,866,0,3,3,128,113,609880,0
609848,-548,-914,-159,-626,-1876,-6903,16361,-2915,-925,-1063,-7336,34965,165,39,127,0,0,0,0,0,0,100,0,0,0,0,0,99,5,30,28,625,3425,-3032,-2043,-210,-3790,5,9,38,74,50,247,17469,3214,1155,0,21529,13138,289,876,0,3,3,128,113,609880,0
609858,-876,-249,-170,-29,-1228,-5709,14961,-3083,-772,-514,-7328,34954,199,39,127,0,0,0,0,0,0,100,0,0,0,0,0,110,5,30,31,629,3171,-2471,-2232,-174,-3884,6,10,41,78,63,228,16146,2944,1149,0,21529,13138,289,886,0,3,3,128,113,609896,0
609868,-894,202,-284,351,-601,-4916,13585,-2993,-214,-216,-6776,34959,175,39,127,0,0,0,0,0,0,100,0,0,0,0,0,110,5,30,33,-4,2959,-2065,-2391,-150,-3913,7,10,43,79,72,212,15066,2683,1142,0,21529,13138,289,896,0,3,3,128,113,609896,0
609878,-1001,1031,-416,950,426,-3640,12243,-2930,118,-25,-5976,34977,127,39,127,0,0,0,0,0,0,100,0,0,0,0,0,124,5,30,36,-23,2767,-1906,-2519,-111,-3874,8,11,45,80,82,184,14042,2424,1132,0,21529,13138,289,906,0,3,3,128,113,609896,0
609888,-1103,1249,-352,1232,1042,-2671,10985,-2678,213,80,-5088,34996,67,39,127,0,0,0,0,0,0,100,0,0,0,0,0,135,5,30,38,-44,2610,-1532,-2612,-81,-3791,8,12,46,78,87,163,13201,2176,1122,131,21529,13138,289,916,0,3,3,128,113,609896,0
609898,-1036,1226,-254,1541,1911,-1087,9893,-2286,486,179,-4152,35013,31,39,127,0,0,0,0,0,0,100,0,0,0,0,0,146,5,30,41,-88,2479,-1252,-2665,-33,-3667,9,13,48,74,94,130,12532,1958,1113,290,21529,13138,289,926,0,3,3,128,113,609896,0
609908,-974,922,-327,1830,2611,-49,8955,-1975,625,210,-3240,35031,8,38,127,0,0,0,0,0,0,100,0,0,0,0,0,154,5,30,43,-125,2379,-972,-2679,-1,-3508,10,14,49,72,99,107,12025,1762,1105,338,21529,13138,289,936,0,3,3,128,113,609896,0
609918,-1067,777,27,1952,3343,1365,8159,-1650,565,236,-2336,35041,-1,38,127,0,0,0,0,0,0,100,0,0,0,0,0,149,5,30,46,-190,2308,-741,-2655,41,-3318,11,15,50,68,107,76,11650,1591,1099,379,21529,13138,289,946,0,4,3,128,113,609904,0
609928,-906,559,80,2183,3915,2150,7530,-1271,583,270,-1424,35060,-18,38,127,0,0,0,0,0,0,100,0,0,0,0,0,151,6,30,48,-238,2245,-576,-2599,65,-3106,11,16,51,67,112,55,11320,1454,1095,431,21529,13138,289,956,0,4,3,128,113,609928,0
609938,-587,378,6,2435,4595,3282,7067,-916,641,216,-848,35049,-20,39,127,0,0,0,0,0,0,100,0,0,100,0,0,152,6,30,51,-312,2189,-604,-2512,100,-2868,12,17,51,68,120,27,11025,1346,1090,344,21529,13138,289,966,0,4,3,128,113,609948,0
609948,-499,320,63,2569,4893,4019,6743,-641,590,92,-432,35040,-24,39,127,0,0,0,0,0,0,100,0,0,100,0,0,151,6,30,53,-363,2146,-477,-2399,122,-2603,13,18,51,69,126,11,10816,1269,1087,146,21529,13138,289,976,0,4,3,128,113,609950,0
609958,-240,372,148,2604,4967,4956,6529,-401,480,84,-104,35020,-15,38,127,0,0,0,0,0,0,100,0,0,100,0,0,146,6,30,56,-437,2122,-258,-2258,151,-2305,14,20,51,70,133,-10,10698,1223,1085,133,21529,13138,289,986,0,4,3,128,113,609952,0
609968,21,335,48,2617,4987,5453,6449,-72,453,301,80,35021,-7,39,127,0,0,0,0,0,0,100,0,0,100,0,0,152,6,30,58,-484,2104,-186,-2097,166,-2098,14,21,51,71,137,-22,10613,1207,1084,476,21529,13138,289,996,0,4,3,128,113,609961,0
609978,390,462,-51,2561,4936,6133,6475,54,475,81,48,35026,-1,38,127,0,0,0,0,0,0,100,0,0,100,0,0,162,7,30,61,-550,2090,-115,-1918,187,-2047,15,23,51,72,142,-37,10544,1213,1083,128,21529,13138,289,1006,0,4,3,128,113,609977,0
609988,533,581,-55,2470,4726,6424,6491,40,173,218,96,35025,14,38,127,0,0,0,0,0,0,100,0,0,100,0,0,170,7,30,63,-589,2083,-76,-1726,196,-1973,16,24,50,72,144,-46,10507,1216,1082,344,21529,13138,289,1016,0,4,3,128,113,609978,0
609998,828,516,-61,2297,4188,6644,6534,106,27,223,128,35025,9,39,127,0,0,0,0,0,0,100,0,0,100,0,0,169,7,30,66,-641,2076,-16,-1525,202,-1883,16,25,50,71,143,-55,10475,1224,1082,352,21529,13138,289,1026,0,4,3,128,113,609978,0
610008,1102,452,-29,2129,3874,6686,6589,144,73,307,200,35024,12,39,127,0,0,0,0,0,0,100,0,0,100,0,0,161,7,30,68,-671,2073,-32,-1322,204,-1776,17,27,49,70,142,-60,10459,1236,1082,485,21529,13138,289,1036,0,4,3,128,113,610012,0
610018,1201,480,-175,1750,3599,6489,6666,193,60,295,240,35024,11,39,127,0,0,0,0,0,0,100,0,0,100,0,0,148,8,30,71,-710,2076,-10,-1120,198,-1669,18,28,48,67,137,-66,10475,1251,1082,466,21529,13138,289,1046,0,4,3,128,113,610012,0
610028,1256,524,-335,1403,3622,6158,6766,224,93,229,224,35019,20,39,127,0,0,0,0,0,0,100,0,0,100,0,0,141,8,30,73,-730,2073,-32,-928,187,-1573,18,29,48,64,133,-69,10459,1275,1082,361,21529,13138,289,1056,0,4,3,128,113,610012,0
610038,1311,342,-621,999,4089,5461,6860,200,30,167,152,35016,26,39,127,0,0,0,0,0,0,100,0,0,100,0,0,136,8,30,76,-756,2063,-82,-753,166,-1491,19,31,47,57,125,-73,10411,1297,1081,263,21529,13138,289,1066,0,4,3,128,113,610045,0
610048,1547,420,-633,749,4530,5001,6934,145,-55,134,112,35022,7,39,127,0,0,0,0,0,0,100,0,0,100,0,0,130,8,30,78,-770,2066,-21,-595,152,-1423,19,32,46,52,119,-76,10427,1315,1081,211,21529,13138,289,1076,0,4,3,128,113,610045,0
610058,1603,722,-557,374,5111,4258,7001,162,-60,289,224,35026,12,39,127,0,0,0,0,0,0,100,0,0,100,0,0,119,9,30,81,-788,2069,0,-456,129,-1381,20,33,45,44,111,-81,10443,1330,1081,456,21529,13138,289,1086,0,4,3,128,113,610045,0
610068,5146,-1257,-522,301,3555,3047,7107,285,59,225,384,35023,3,39,127,0,0,0,0,0,0,100,0,0,100,0,0,108,9,30,83,-798,2083,170,-344,92,-1355,20,34,45,39,104,-85,10507,1356,1082,355,21529,13138,289,1096,0,4,3,128,113,610060,0
610078,9977,-2475,1324,1011,2055,-3957,7231,133,165,-1213,-1280,35014,-2,39,127,0,0,0,0,0,0,100,0,0,200,0,0,452,9,30,86,0,1823,-2911,-394,-120,-1469,21,35,44,31,32,-51,9255,1385,1066,0,21529,13138,289,1106,0,4,3,128,113,610095,0
610088,10158,-303,-17,719,-259,-4458,6911,-966,-821,-1434,-2696,35015,7,39,127,0,0,0,0,0,0,100,0,0,200,0,0,386,9,30,88,9,1612,-1950,-525,-136,-1665,21,35,44,33,-24,-17,8268,1309,1058,0,21529,13138,289,1116,0,4,3,128,113,610111,0
610098,1237,670,-1393,-888,-1903,-923,6327,-1477,-1383,-850,-11144,35005,28,38,127,0,0,0,0,0,0,100,0,0,200,0,0,235,10,30,91,32,1383,-1972,-5,-28,-1858,21,34,44,21,-69,2,7198,1183,1061,0,21620,11642,290,2,1,0,3,127,126,610111,0
610108,1845,-1107,-752,-2608,-5154,705,4770,-4091,-2388,-3220,-5656,34895,447,38,127,0,0,0,0,0,0,100,0,0,200,0,0,175,10,30,93,48,1284,-917,2,21,-1921,21,34,44,6,-66,-8,6757,854,1069,0,21620,11642,290,12,1,0,3,127,126,610111,0
610118,-1338,-5163,1434,-990,-2460,-1072,3580,-1775,-1446,4000,-520,34879,419,39,127,0,0,0,0,0,0,100,0,0,200,0,0,115,10,30,96,71,1184,-1076,-8,-32,-1898,21,33,43,-6,-74,-7,6311,615,1077,6294,21620,11642,290,22,1,0,3,127,126,610111,0
610128,-1271,-5544,-249,-419,1090,-2106,3176,-795,2561,-290,-2416,34910,311,39,127,0,0,0,0,0,0,100,0,0,200,0,0,176,10,30,98,88,1003,-1851,-59,-64,-1919,21,32,43,9,-60,-10,5480,536,1091,0,21620,11642,290,32,1,0,3,127,126,610126,0
610138,2007,-3551,114,-581,1242,-2416,2738,-1157,1275,-788,-1928,34956,151,38,127,0,0,0,0,0,0,100,0,0,200,0,0,137,10,30,101,116,854,-1307,-131,-73,-1965,22,32,43,11,-37,-2,4783,454,1112,0,21620,11642,290,42,1,0,3,127,126,610127,0
610148,3010,-3195,425,-1090,371,-1478,2281,-883,-128,686,824,35052,-97,39,127,0,0,0,0,0,0,100,0,0,200,0,0,123,11,30,103,138,780,-681,-189,-45,-2036,22,31,43,5,-31,4,4425,372,1124,1126,21620,11642,290,52,1,0,3,127,126,610230,0
610158,3263,-2441,315,-999,-640,56,2386,695,1274,1961,2152,35022,21,39,127,0,0,1,0,0,1,100,0,0,200,0,0,90,11,30,106,168,776,21,-206,1,-2079,22,31,43,5,-31,4,4408,391,1125,3221,21620,11642,290,62,1,1,3,127,126,610230,0
610168,1044,-1988,327,-667,-1299,661,2790,900,1685,359,1856,35015,36,38,127,0,0,1,0,0,1,100,0,0,200,0,0,75,11,30,108,178,810,411,-195,20,-2088,22,31,43,5,-31,4,4576,463,1119,586,21620,11642,290,72,1,1,3,127,126,610230,0
610178,534,-1559,488,-430,-1291,562,3196,886,374,316,1792,35009,29,38,127,0,0,1,0,0,1,100,0,0,200,0,0,60,11,30,111,185,847,368,-176,17,-2081,22,31,43,5,-31,4,4747,540,1113,513,21620,11642,290,82,1,1,3,127,126,610230,0
610188,823,-1223,-558,-392,-741,177,3587,844,-38,249,1544,35000,42,38,127,0,0,1,0,0,1,100,0,0,200,0,0,54,20,30,113,191,876,230,-165,5,-2080,22,31,43,5,-31,4,4887,617,1109,403,21620,11642,290,92,1,1,3,127,126,610230,0
610198,1539,-975,-857,-262,10,86,3946,757,-93,113,960,35005,26,39,127,0,0,1,0,0,1,100,0,0,200,0,0,54,20,30,116,201,889,104,-160,2,-2102,22,31,43,5,-31,4,4949,687,1107,182,21620,11642,290,102,1,1,3,127,126,610246,0
610208,1622,-1013,-663,-204,156,237,4246,629,-181,348,1728,35009,17,39,127,0,0,1,0,0,1,100,0,0,200,0,190,48,20,30,118,206,882,-21,-155,7,-2132,22,31,43,5,-31,4,4912,745,1108,563,21620,11642,290,112,1,1,3,127,126,610246,0
610218,1231,-1600,81,-175,70,959,4626,945,67,1243,2656,35013,16,38,127,0,0,1,0,0,1,100,0,0,200,0,205,46,21,30,121,211,900,153,-139,29,-2148,22,31,43,5,-31,4,5000,823,1106,2007,21620,11642,290,122,1,1,3,127,126,610246,0
610228,2627,-2108,307,-387,-640,1594,5050,875,265,1358,2080,35007,29,39,127,0,0,1,0,0,1,100,0,0,200,0,209,54,21,30,123,0,968,725,-96,48,-2126,22,31,43,5,-31,4,5321,914,1096,2173,21620,11642,290,132,1,1,3,127,126,610246,0
610238,1300,-1244,700,31,-990,1674,5310,440,-304,1276,1072,34998,61,39,127,0,0,1,0,0,1,100,0,0,200,0,212,51,21,30,126,0,1023,543,-41,51,-2105,22,31,43,5,-31,4,5576,970,1090,2031,21620,11642,290,142,1,1,3,127,126,610247,0
610248,422,-1739,99,140,-624,1283,5416,170,-631,1379,560,34995,64,39,127,0,0,1,0,0,1,100,0,0,200,0,212,46,22,30,128,-2,1052,296,2,39,-2069,22,31,43,5,-31,4,5707,993,1088,2190,21620,11642,290,152,1,1,3,127,126,610247,0
610258,1157,-1909,325,224,384,890,5460,64,-379,1339,416,35005,47,38,127,0,0,1,0,0,1,100,0,0,200,0,212,39,22,30,131,-6,1055,43,32,27,-2037,22,31,43,5,-31,4,5722,1002,1087,2126,21620,11642,290,162,1,1,3,127,126,610247,0
610268,1346,-1615,-139,48,584,986,5493,93,-119,1270,632,35022,23,39,127,0,0,1,0,0,1,100,0,0,200,0,212,35,22,30,133,-9,1065,87,61,30,-2022,22,31,43,5,-31,4,5767,1009,1087,2015,21620,11642,290,172,1,1,3,127,126,610262,0
610278,1508,-1535,83,-220,453,1422,5578,236,100,1271,960,35042,18,38,127,0,0,1,0,0,1,100,0,0,200,0,212,32,23,30,136,-12,1086,208,99,43,-2009,22,31,43,5,-31,4,5863,1027,1085,2014,21620,11642,290,182,1,1,3,127,126,610262,0
610288,1460,-1774,531,-124,213,1669,5727,383,233,1297,1320,35045,23,38,127,0,0,1,0,0,1,100,0,0,200,0,212,25,23,30,138,-13,1119,351,147,50,-1983,22,31,43,5,-31,4,6014,1059,1082,2050,21620,11642,290,192,1,1,3,127,126,610295,0
610298,1389,-1810,715,-128,-95,1998,5939,500,247,1320,1608,35042,37,38,127,0,0,1,0,1,1,100,0,100,200,0,212,22,23,22,1,0,1171,549,204,60,-1946,22,31,43,5,-31,4,6251,1105,1078,2079,21620,11642,290,202,1,1,3,127,126,610295,0
610308,1325,-1905,495,-144,-258,2150,6206,610,221,1395,1872,35025,63,38,127,0,0,1,0,1,1,100,0,100,200,0,212,19,24,22,3,0,1221,565,268,65,-1900,22,31,43,5,-31,4,6479,1158,1074,2188,21620,11642,290,212,1,1,3,127,126,610295,0
610318,1268,-1945,253,-173,-358,2309,6509,678,166,1376,1992,35011,72,39,127,0,0,1,0,1,1,100,0,100,200,0,212,17,24,22,6,1,1293,692,337,70,-1845,22,31,43,5,-31,4,6797,1219,1068,2147,21620,11642,290,222,1,1,3,127,126,610309,0
610328,921,-1849,244,-223,-284,2292,6812,680,64,1329,1936,34999,76,38,127,0,0,1,0,1,1,100,0,100,200,0,212,15,24,22,8,1,1357,626,407,69,-1784,22,31,43,5,-31,4,7085,1286,1063,2063,21620,11642,290,232,1,1,3,127,126,610328,0
610338,714,-1758,126,-273,-117,2228,7133,720,36,1350,2136,35008,83,38,127,0,0,1,0,1,1,100,0,100,200,0,212,12,25,14,11,2,1423,659,476,67,-1719,22,31,43,5,-31,4,7386,1362,1060,2089,21620,11642,290,242,1,1,3,127,126,610328,0
610348,985,-1754,150,-276,24,2238,7459,709,41,1357,1968,35008,89,39,127,0,0,1,0,1,1,100,0,100,200,0,213,9,25,12,13,3,1495,675,545,68,-1659,22,31,43,5,-31,4,7719,1438,1059,2098,21620,11642,290,252,1,1,3,127,126,610345,0
610358,1123,-1490,88,-264,14,2270,7770,659,-27,1404,1800,35005,89,39,127,0,0,1,0,1,0,100,0,100,0,0,213,9,25,6,16,4,1555,582,614,69,-1611,22,31,43,5,-31,4,8002,1506,1058,2169,21620,11642,290,262,1,1,3,127,126,610346,0
610368,1078,-1521,86,-207,1,2253,8037,563,-124,1376,1584,34998,72,38,127,0,0,1,0,1,0,100,0,100,0,0,213,10,25,6,18,5,1608,505,682,68,-1564,22,31,43,5,-31,4,8248,1565,1058,2126,21620,11642,290,272,1,1,3,127,126,610381,0
610378,899,-1611,169,-146,57,2163,8259,473,-163,1351,1416,35007,65,38,127,0,0,1,0,1,0,100,0,100,0,0,213,15,25,6,21,5,1656,455,749,66,-1514,22,31,43,5,-31,4,8473,1613,1060,2091,21620,11642,290,282,1,1,3,127,126,610381,0
610388,818,-1724,283,-138,61,2149,8475,490,-90,1359,1528,35011,57,38,127,0,0,1,0,1,0,100,0,100,0,0,213,18,25,6,23,0,1703,472,815,65,-1459,22,31,43,5,-31,4,8692,1659,1062,2107,21620,11642,290,292,1,1,3,127,126,610381,0
610398,649,-1895,313,-139,16,2188,8708,533,37,1337,1672,35013,54,38,127,0,0,1,0,1,0,100,0,100,0,0,213,17,25,6,26,0,1746,466,882,66,-1399,22,31,43,5,-31,4,8892,1709,1063,2076,21620,11642,290,302,1,1,3,127,126,610381,0
610408,677,-1939,269,-170,31,2198,8965,575,85,1378,1776,35004,48,39,127,0,0,1,0,1,0,100,0,100,0,0,213,14,25,6,28,-1,1800,532,948,67,-1339,22,31,43,5,-31,4,9144,1764,1065,2143,21620,11642,290,312,1,1,3,127,126,610412,0
610418,806,-1868,375,-223,1,2111,9231,585,61,1372,1752,35014,54,38,127,0,0,1,0,1,0,100,0,100,0,0,213,14,25,6,31,-2,1850,543,1014,64,-1281,22,31,43,5,-31,4,9382,1819,1068,2139,21620,11642,290,322,1,1,3,127,126,610412,0
610428,714,-1819,364,-251,-73,2057,9482,532,-19,1325,1616,35020,53,38,127,0,0,1,0,1,0,100,0,100,0,0,213,13,25,6,33,-3,1903,510,1078,62,-1226,22,31,43,5,-31,4,9641,1872,1071,2072,21620,11642,290,332,1,1,3,127,126,610412,0
610438,730,-1659,198,-240,-92,1939,9695,430,-109,1384,1248,35022,60,38,127,0,0,1,0,1,0,100,0,100,0,0,213,14,25,6,36,-3,1941,379,1139,59,-1176,22,31,43,5,-31,4,9821,1917,1073,2168,21620,11642,290,342,1,1,3,127,126,610435,0
610448,558,-1610,182,-214,-88,1830,9868,363,-156,1358,1168,35023,49,39,127,0,0,1,0,1,0,100,0,100,0,0,213,17,25,6,38,-3,1979,351,1196,55,-1128,22,31,43,5,-31,4,10006,1953,1075,2132,21620,11642,290,352,1,1,3,127,126,610435,0
610458,665,-1850,-40,-209,-48,1694,10004,276,-148,1387,936,35019,51,39,127,0,0,1,0,1,0,100,0,100,0,0,213,22,25,6,41,-4,2005,269,1249,51,-1083,22,31,43,5,-31,4,10128,1981,1077,2181,21620,11642,290,362,1,1,3,127,126,610445,0
610468,554,-2000,2,-251,69,1556,10095,179,-158,1402,648,35026,40,39,127,0,0,1,0,1,0,100,0,100,0,0,213,19,25,6,43,-4,2023,197,1299,47,-1039,22,31,43,5,-31,4,10219,2000,1078,2207,21620,11642,290,372,1,1,3,127,126,610481,0
610478,117,-1927,-77,-279,139,1393,10167,172,-112,1298,840,35032,35,38,127,0,0,1,0,1,0,100,0,100,0,0,213,21,25,6,46,-5,2032,186,1343,42,-993,22,31,43,5,-31,4,10261,2015,1079,2045,21620,11642,290,382,1,1,3,127,126,610481,0
610488,199,-2096,-18,-254,21,1311,10263,215,24,1346,856,35035,21,39,127,0,0,1,0,1,0,100,0,100,0,0,213,21,25,6,48,-5,2053,164,1384,40,-949,22,31,43,5,-31,4,10363,2035,1080,2123,21620,11642,290,392,1,1,3,127,126,610481,0
610498,162,-2005,55,-114,72,1143,10355,201,29,1356,752,35033,30,39,127,0,0,1,0,1,0,100,0,100,0,0,213,17,25,6,51,-5,2074,203,1420,34,-913,22,31,43,5,-31,4,10464,2054,1082,2142,21620,11642,290,402,1,1,3,127,126,610481,0
610508,-63,-2003,84,-71,7,972,10447,186,-12,1340,720,35030,42,38,127,0,0,1,0,1,0,100,0,100,0,0,213,12,25,6,53,-5,2088,126,1452,29,-874,22,31,43,5,-31,4,10533,2072,1083,2119,21620,11642,290,412,1,1,3,127,126,610512,0
610518,63,-2168,258,-20,125,570,10515,129,-54,1339,568,35042,49,38,127,0,0,1,0,1,0,100,0,100,0,0,213,9,25,6,56,-6,2103,137,1475,17,-843,22,31,43,5,-31,4,10608,2085,1084,2120,21620,11642,290,422,1,1,3,127,126,610512,0
610528,34,-2307,503,-55,100,342,10559,86,-91,1346,496,35044,52,39,127,0,0,1,0,1,0,100,0,100,0,0,213,13,25,6,58,-6,2109,71,1488,10,-821,22,31,43,5,-31,4,10634,2094,1084,2131,21620,11642,290,432,1,1,3,127,126,610512,0
610538,151,-2172,601,-44,26,8,10577,19,-94,1359,392,35045,43,39,127,0,0,1,0,1,0,100,0,100,0,0,215,14,25,6,61,0,2113,5,1492,0,-812,22,31,43,5,-31,4,10656,2097,1085,2153,21620,11642,290,442,1,1,3,127,126,610528,0
610548,195,-2044,567,-140,-48,-141,10574,-13,-94,1345,368,35046,38,39,127,0,0,1,0,1,0,100,0,100,0,0,217,13,25,6,63,1,2113,21,1489,-4,-811,22,31,43,5,-31,4,10656,2097,1085,2131,21620,11642,290,452,1,1,3,127,126,610545,0
610558,323,-2074,555,-313,-138,-295,10575,7,-27,1363,408,35052,33,39,127,0,0,1,0,1,0,100,0,100,0,0,224,12,25,6,66,3,2113,16,1482,-9,-817,22,31,43,5,-31,4,10656,2097,1085,2159,21620,11642,290,462,1,1,3,127,126,610561,0
610568,538,-2056,469,-334,-158,-367,10576,1,15,1428,416,35046,32,39,127,0,0,1,0,1,0,100,0,100,0,0,235,12,25,6,68,4,2110,-32,1472,-11,-831,22,31,43,5,-31,4,10640,2097,1084,2262,21620,11642,290,472,1,1,3,127,126,610581,0
610578,756,-1998,232,-393,-201,-355,10575,3,-1,1488,416,35037,44,39,127,0,0,1,0,1,0,100,0,100,0,0,245,12,25,6,71,6,2114,16,1461,-10,-853,22,31,43,5,-31,4,10661,2097,1085,2357,21620,11642,290,482,1,1,3,127,126,610586,0
610588,758,-1993,262,-456,-261,-331,10577,6,4,1551,432,35038,43,39,127,0,0,1,0,1,0,100,0,100,0,0,254,12,25,6,73,8,2111,-16,1450,-10,-875,22,31,43,5,-31,4,10645,2097,1085,2457,21620,11642,290,492,1,1,3,127,126,610587,0
610598,509,-2185,466,-478,-251,-313,10583,22,10,1615,472,35038,42,39,127,0,0,1,0,1,0,100,0,100,0,0,264,11,25,6,76,11,2114,32,1441,-9,-892,22,31,43,5,-31,4,10661,2099,1085,2559,21620,11642,290,502,1,1,3,127,126,610587,0
610608,316,-2393,564,-513,-215,-336,10607,67,48,1649,592,35041,45,39,127,0,0,1,0,1,0,100,0,100,0,0,277,14,25,6,78,13,2120,65,1431,-10,-903,22,31,43,5,-31,4,10688,2103,1085,2613,21620,11642,290,512,1,1,3,127,126,610629,0
610618,443,-2464,599,-572,-197,-385,10659,141,90,1692,1000,35044,52,39,127,0,0,1,0,1,0,100,0,100,0,0,299,24,25,6,81,16,2131,109,1420,-11,-914,22,31,43,5,-31,4,10741,2113,1086,2684,21620,11642,290,522,1,1,3,127,126,610631,0
610628,639,-2674,615,-616,-319,-267,10790,363,221,1838,1632,35039,68,39,127,0,0,0,0,0,0,100,0,0,0,1,328,30,25,6,83,18,2157,324,1410,-8,-926,0,0,0,7,10,12,10869,2138,1088,2920,21620,11642,290,532,1,1,3,127,126,610639,0
610638,631,-3120,384,-831,-560,144,11059,709,364,2059,2728,35034,78,39,127,0,0,0,0,0,0,100,0,0,0,0,371,47,25,6,3,23,2210,642,1409,4,-932,0,0,0,8,13,16,11135,2190,1092,3284,21620,11642,290,542,1,1,3,127,126,610641,0
610648,185,-3358,472,-864,-728,466,11560,1287,706,2409,4320,35010,115,39,127,0,0,0,0,0,0,100,0,0,0,0,472,64,25,6,5,26,2301,972,1419,14,-918,0,0,0,8,17,20,11615,2289,1099,3867,21620,11642,290,552,1,1,3,127,126,610641,0
