state_time,accelx,accely,accelz,gyrox,gyroy,gyroz,mot_ang,mot_vel,mot_acc,mot_cur,mot_volt,batt_volt,batt_curr,temperature,status_mn,status_ex,status_re,genvar_0,genvar_1,genvar_2,genvar_3,genvar_4,genvar_5,genvar_6,genvar_7,genvar_8,genvar_9,genvar_10,genvar_11,genvar_12,genvar_13,genvar_14,ank_ang,ank_vel,shank_ang,shank_vel,global_shank_ang,ank_pos_x,ank_pos_y,ank_pos_z,ank_linear_vel_x,ank_linear_vel_y,ank_linear_vel_z,mot_from_ank,ank_from_mot,trans_ratio,ank_torque,peak_ank_torque,step_energy,step_count,step_time,gait_state,intermediate_state,movement,speed,incline,sys_time,event flags
567479,-1567,-2224,-147,363,-822,1958,10943,10,198,78,72,35085,-38,39,127,0,0,0,0,0,0,100,0,0,0,0,-1,49,6,30,49,0,3192,241,1815,59,713,11,-14,0,-2,5,0,16254,2168,1150,130,9826,-4228,272,3959,-4,0,0,-73,0,567469,0
567489,-921,-1596,-68,62,-722,2202,10990,147,257,432,488,35084,-50,39,127,0,0,0,0,0,0,100,0,0,0,0,-1,31,6,30,52,-1,3249,604,1879,67,800,11,-14,0,-5,17,-1,16552,2177,1151,726,9826,-4228,272,3969,-4,0,0,-71,0,567491,0
567499,-595,-2013,165,151,-761,2367,11129,378,296,666,1096,35075,-67,39,127,0,0,0,0,0,0,100,0,0,0,0,-1,31,6,30,54,-3,3346,988,1950,72,886,11,-14,0,-9,26,-5,17056,2204,1153,1121,9826,-4228,272,3979,-4,0,0,-68,0,567494,0
567509,-196,-2147,170,267,-921,1818,11384,634,410,645,1616,35074,-52,39,127,0,0,0,0,0,0,100,0,0,0,0,-1,26,6,30,57,-5,3436,878,2015,55,951,11,-14,0,-9,29,-6,17527,2254,1155,1088,9826,-4228,272,3989,-4,0,0,-65,0,567514,0
567519,62,-2079,382,311,-1153,1525,11723,780,383,456,1664,35090,-33,39,127,0,0,0,0,0,0,100,0,0,0,0,-1,24,7,30,59,-7,3504,648,2066,46,994,11,-13,0,-10,28,-5,17884,2321,1156,770,9826,-4228,272,3999,-4,0,0,-62,0,567514,0
567529,105,-2089,544,171,-1436,1484,12087,800,184,301,1504,35088,-23,39,127,0,0,0,0,0,0,100,0,0,0,0,-1,19,7,30,62,-10,3559,549,2111,45,1025,10,-13,0,-10,26,-4,18173,2393,1158,508,9826,-4228,272,4009,-4,0,0,-60,0,567514,0
567539,-111,-2072,506,109,-1448,1469,12435,754,-4,264,1376,35088,-18,39,127,0,0,0,0,0,0,100,0,0,0,0,-1,18,7,30,64,-12,3618,560,2156,44,1059,10,-13,0,-10,26,-3,18490,2461,1159,446,9826,-4228,272,4019,-4,0,0,-57,0,567564,0
567549,-275,-2026,442,38,-1423,1279,12765,717,-64,268,1416,35080,-19,39,127,0,0,0,0,0,0,100,0,0,0,0,-1,18,7,30,67,-14,3676,604,2198,39,1098,10,-12,0,-10,27,-3,18797,2526,1161,454,9826,-4228,272,4029,-4,0,0,-56,0,567579,0
567559,-214,-2132,668,32,-1488,1045,13080,696,-56,286,1264,35085,-28,39,127,0,0,0,0,0,0,100,0,0,0,0,-1,15,7,30,69,-14,3722,428,2234,31,1129,10,-12,0,-10,28,-2,19046,2587,1162,485,9826,-4228,272,4039,-4,0,0,-53,0,567579,0
567569,-7,-2049,785,-102,-1735,704,13377,633,-54,232,1152,35091,-34,39,127,0,0,0,0,0,0,100,0,0,0,0,-1,17,8,30,72,-15,3755,329,2260,21,1147,10,-12,0,-9,27,-1,19223,2644,1163,393,9826,-4228,272,4049,-4,0,0,-51,0,567579,0
567579,-79,-2070,676,-205,-1927,527,13647,568,-96,177,800,35081,-51,39,127,0,0,0,0,0,0,100,0,0,0,0,-1,14,8,30,74,0,3772,164,2279,16,1155,10,-12,0,-8,25,0,19318,2694,1163,300,9826,-4228,272,4059,-4,0,0,-49,0,567579,0
567589,-228,-2149,505,-166,-2142,202,13870,445,-151,155,424,35080,-53,39,127,0,0,0,0,0,0,100,0,0,0,0,-1,13,8,30,77,2,3779,109,2290,6,1159,10,-11,0,-7,24,0,19353,2735,1163,263,9826,-4228,272,4069,-4,0,0,-47,0,567579,0
567599,-220,-2145,219,-130,-2245,47,14043,335,-189,56,136,35077,-63,39,127,0,0,0,0,0,0,100,0,0,0,0,-1,13,8,30,79,4,3781,32,2294,1,1157,10,-11,0,-5,23,0,19364,2767,1163,95,9826,-4228,272,4079,-4,0,0,-45,0,567597,0
567609,-221,-2232,211,-206,-2160,-80,14126,113,-278,-144,-16,35092,-60,39,127,0,0,0,0,0,0,100,0,0,0,0,-1,11,9,30,82,6,3779,-10,2293,-2,1149,10,-11,0,-5,23,1,19353,2783,1163,0,9826,-4228,272,4089,-4,0,0,-44,0,567597,0
567619,48,-2077,-10,-361,-1622,-147,14121,-34,-339,-11,80,35099,-55,39,127,0,0,0,0,0,0,100,0,0,0,0,-1,15,9,30,84,7,3788,76,2290,-4,1138,10,-11,0,-6,26,2,19399,2782,1164,0,9826,-4228,272,4099,-4,0,0,-42,0,567614,0
567629,-420,-2122,-105,-362,-902,-362,14137,39,-100,80,48,35106,-63,39,127,0,0,0,0,0,0,100,0,0,0,0,-1,15,9,30,87,9,3785,-10,2281,-11,1128,10,-10,0,-9,28,2,19388,2785,1163,135,9826,-4228,272,4109,-4,0,0,-40,0,567614,0
567639,-523,-2199,49,-197,-391,-560,14133,-11,4,66,-16,35103,-68,39,127,0,0,0,0,0,0,100,0,0,0,0,-1,12,9,30,89,10,3781,-43,2267,-17,1115,10,-10,0,-10,33,0,19364,2784,1163,112,9826,-4228,272,4119,-4,0,0,-38,0,567634,0
567649,-362,-1900,-8,-232,535,-654,14126,-33,-44,-168,-136,35107,-78,39,127,0,0,0,0,0,0,100,0,0,0,0,-1,10,10,30,92,12,3768,-120,2247,-19,1095,9,-10,0,-10,36,0,19294,2783,1163,0,9826,-4228,272,4129,-4,0,0,-36,0,567634,0
567659,-173,-1881,-32,-294,1042,-578,14085,-120,-86,-335,-192,35098,-78,39,127,0,0,0,0,0,0,100,0,0,0,0,-1,11,10,30,94,12,3757,-87,2228,-17,1073,9,-9,0,-12,43,0,19235,2775,1163,0,9826,-4228,272,4139,-4,0,0,-34,0,567664,0
567669,-129,-1953,-175,-328,1515,-469,14025,-142,-106,-311,-168,35096,-68,39,127,0,0,1,0,1,0,100,0,100,0,0,-1,8,10,8,1,0,3741,-142,2212,-14,1051,9,-9,0,-13,45,0,19152,2764,1162,0,9826,-4228,272,4149,-4,0,0,-33,0,567664,0
567679,29,-2013,-135,-341,1792,-479,13955,-157,-50,-251,-152,35088,-66,39,127,0,0,1,0,1,0,100,0,100,0,0,-1,7,10,8,3,0,3730,-131,2198,-14,1027,9,-9,0,-13,45,0,19093,2751,1162,0,9826,-4228,272,4159,-4,0,0,-33,0,567664,0
567689,130,-1873,-45,-425,2103,-509,13890,-143,-4,-298,-192,35097,-67,39,127,0,0,1,0,1,0,100,0,100,0,0,-1,5,11,8,6,-2,3717,-142,2182,-15,999,9,-9,0,-13,45,0,19022,2739,1162,0,9826,-4228,272,4169,-4,0,0,-33,0,567680,0
567699,169,-1964,61,-452,2194,-600,13830,-139,17,-341,-224,35094,-53,39,127,0,0,1,0,1,0,100,0,100,0,0,-1,5,11,8,8,-3,3702,-186,2166,-18,967,9,-9,0,-13,45,0,18939,2728,1161,0,9826,-4228,272,4179,-4,0,0,-33,0,567680,0
567709,411,-2315,746,-364,1754,-670,13750,-190,-42,-325,-248,35087,-52,39,127,0,0,1,0,1,0,100,0,100,0,0,-1,8,11,4,11,-6,3691,-87,2145,-20,932,9,-9,0,-13,45,0,18880,2713,1161,0,9826,-4228,272,4189,-4,0,0,-33,0,567714,0
567719,330,-2123,818,-299,1528,-653,13669,-161,-22,-240,-232,35086,-47,39,127,0,0,1,0,1,0,100,0,100,0,0,-1,11,11,4,13,-7,3671,-186,2125,-19,892,9,-9,0,-13,45,0,18774,2698,1160,0,9826,-4228,272,4199,-4,0,0,-33,0,567714,0
567729,268,-1960,713,-363,1141,-616,13588,-178,15,-277,-200,35086,-51,39,127,0,0,1,0,1,0,100,0,100,0,0,-1,8,11,4,16,-8,3658,-175,2106,-18,856,9,-9,0,-13,45,0,18703,2683,1160,0,9826,-4228,272,4209,-4,0,0,-33,0,567714,0
567739,260,-1961,721,-213,785,-608,13502,-179,-31,-287,-224,35093,-44,39,127,0,0,1,0,1,0,100,0,100,0,0,-1,6,20,4,18,-8,3643,-175,2088,-18,821,9,-9,0,-13,45,0,18620,2667,1160,0,9826,-4228,272,4219,-4,0,0,-33,0,567731,0
567749,418,-1920,841,2,59,-362,13418,-186,3,-274,-200,35089,-31,39,127,0,0,1,0,1,0,100,0,100,0,0,-1,4,20,4,21,-8,3627,-142,2072,-11,788,9,-9,0,-13,45,0,18537,2652,1159,0,9826,-4228,272,4229,-4,0,0,-33,0,567731,0
567759,493,-2249,667,-14,-287,-129,13336,-165,-2,-257,-152,35086,-30,38,127,0,0,1,0,1,0,100,0,100,0,0,-1,4,20,4,23,0,3623,-43,2065,-3,760,9,-9,0,-13,45,0,18513,2637,1159,0,9826,-4228,272,4239,-4,0,0,-33,0,567765,0
567769,234,-2035,380,-65,-416,12,13281,-77,52,-49,56,35091,-39,39,127,0,0,1,0,1,0,100,0,100,0,0,-1,6,21,4,26,0,3625,10,2064,0,741,9,-9,0,-13,45,0,18525,2626,1159,0,9826,-4228,272,4249,-4,0,0,-33,0,567768,0
567779,254,-2094,38,-25,-230,25,13280,16,160,-12,8,35094,-59,39,127,0,0,1,0,1,0,100,0,100,0,0,-1,5,21,4,28,1,3625,10,2065,0,728,9,-9,0,-13,45,0,18525,2626,1159,0,9826,-4228,272,4259,-4,0,0,-33,0,567768,0
567789,339,-1951,-141,53,1,118,13289,15,119,29,-56,35101,-50,39,127,0,0,1,0,1,0,100,0,100,0,0,-1,3,21,3,31,2,3625,-43,2067,3,716,9,-9,0,-13,45,0,18525,2628,1159,49,9826,-4228,272,4269,-4,0,0,-33,0,567781,0
567799,446,-1959,-65,86,20,216,13288,2,-7,40,16,35094,-46,39,127,0,0,1,0,1,0,100,0,100,0,0,-1,5,22,3,33,3,3629,21,2072,6,702,9,-9,0,-13,45,0,18549,2627,1159,67,9826,-4228,272,4279,-4,0,0,-33,0,567781,0
567809,313,-2063,-9,179,-44,556,13294,18,-3,117,88,35086,-48,39,127,0,0,1,0,1,0,100,0,100,0,0,-1,4,22,3,36,0,3643,164,2083,16,696,9,-9,0,-13,45,0,18620,2629,1160,198,9826,-4228,272,4289,-4,0,0,-33,0,567813,0
567819,312,-2007,-2,291,-57,596,13333,118,72,329,192,35092,-52,39,127,0,0,1,0,1,0,100,0,100,0,0,-1,4,22,3,38,0,3662,197,2101,18,697,9,-9,0,-13,45,0,18726,2636,1160,557,9826,-4228,272,4299,-4,0,0,-33,0,567813,0
567829,111,-2093,134,398,-10,649,13409,201,143,349,256,35085,-52,39,127,0,0,1,0,1,0,100,0,100,0,0,-1,4,23,3,41,0,3682,186,2120,19,704,9,-9,0,-13,45,0,18833,2650,1161,591,9826,-4228,272,4309,-4,0,0,-33,0,567813,0
567839,167,-2113,329,530,-8,678,13507,227,125,352,296,35083,-32,39,127,0,0,1,0,1,0,100,0,100,0,0,-1,3,23,3,43,-1,3704,230,2140,20,713,9,-9,0,-13,45,0,18951,2668,1161,597,9826,-4228,272,4319,-4,0,0,-33,0,567831,0
567849,195,-2010,332,456,-85,803,13620,246,62,304,352,35084,-18,39,127,0,0,1,0,1,0,100,0,100,0,0,-1,2,24,3,46,-1,3728,252,2163,24,724,9,-9,0,-13,45,0,19081,2689,1162,515,9826,-4228,272,4329,-4,0,0,-33,0,567831,0
567859,132,-2059,414,455,-122,820,13733,263,29,360,432,35087,-8,39,127,0,0,1,0,1,0,100,0,100,0,1,-1,4,24,3,1,-2,3755,274,2187,25,736,9,-9,0,-13,45,0,19223,2710,1163,611,9826,-4228,272,4339,-4,0,0,-33,0,567869,0
567869,-16,-2022,331,434,-119,794,13863,281,30,340,488,35090,-10,39,127,0,0,1,0,1,0,100,0,100,0,0,-1,4,24,4,3,-3,3785,307,2213,24,753,9,-9,0,-13,45,0,19388,2734,1163,577,9826,-4228,272,4349,-4,0,0,-33,0,567869,0
567879,-130,-2075,428,415,-76,714,14003,316,48,331,456,35078,-27,39,127,0,0,1,0,1,0,100,0,100,0,0,-1,1,24,4,5,-3,3807,241,2235,21,770,9,-9,0,-13,45,0,19504,2759,1164,562,9826,-4228,272,4359,-4,0,0,-33,0,567877,0
567889,-95,-2042,477,360,-51,591,14141,304,18,282,392,35068,-30,38,127,0,0,1,0,1,0,100,0,100,0,0,-1,4,24,4,8,0,3825,153,2256,18,786,9,-9,0,-13,45,0,19598,2785,1165,479,9826,-4228,272,4369,-4,0,0,-33,0,567880,0
567899,-107,-2051,475,304,-63,534,14268,263,-26,281,360,35072,-54,38,127,0,0,1,0,1,0,100,0,100,0,0,-1,4,24,4,10,0,3847,186,2273,16,798,9,-9,0,-13,45,0,19714,2810,1165,478,9826,-4228,272,4379,-4,0,0,-33,0,567896,0
567909,-175,-2058,433,248,-71,404,14396,280,-25,238,296,35082,-63,39,127,0,0,1,0,1,0,100,0,100,0,0,-1,3,24,4,13,0,3862,153,2287,12,808,9,-9,0,-13,45,0,19796,2835,1166,405,9826,-4228,272,4389,-4,0,0,-33,0,567899,0
567919,-188,-2042,427,234,-38,286,14503,237,-41,215,176,35084,-47,39,127,0,0,1,0,1,0,100,0,100,0,0,-1,3,24,3,15,1,3873,87,2298,8,815,9,-9,0,-13,45,0,19854,2856,1166,366,9826,-4228,272,4399,-4,0,0,-33,0,567899,0
567929,-164,-2042,413,191,-36,135,14585,144,-80,166,112,35080,-25,38,127,0,0,1,0,1,0,100,0,100,0,0,-1,3,24,2,18,2,3878,10,2304,4,819,9,-9,0,-13,45,0,19877,2872,1166,282,9826,-4228,272,4409,-4,0,0,-33,0,567947,0
567939,-183,-2050,428,164,-35,32,14612,31,-159,227,88,35072,-28,38,127,0,0,1,0,1,0,100,0,100,0,0,-1,2,24,2,20,2,3882,-10,2307,0,819,9,-9,0,-13,45,0,19901,2877,1166,386,9826,-4228,272,4419,-4,0,0,-33,0,567949,0
567949,-214,-2031,410,116,-35,-95,14612,-3,-156,283,104,35074,-38,38,127,0,0,1,0,1,0,100,0,100,0,0,-1,2,24,2,23,3,3884,32,2306,-2,815,9,-9,0,-13,45,0,19912,2877,1166,482,9826,-4228,272,4429,-4,0,0,-33,0,567949,0
567959,-162,-2040,401,74,-53,-161,14614,11,-41,305,136,35072,-37,39,127,0,0,1,0,1,0,100,0,100,0,0,-1,4,24,2,25,4,3880,-43,2302,-4,808,9,-9,0,-13,45,0,19889,2877,1166,519,9826,-4228,272,4439,-4,0,0,-33,0,567949,0
567969,-110,-2042,394,41,-78,-274,14611,-11,-7,207,32,35061,-37,39,127,0,0,1,0,1,0,100,0,100,0,0,-1,3,24,2,28,5,3878,-10,2295,-8,798,9,-9,0,-13,45,0,19877,2877,1166,352,9826,-4228,272,4449,-4,0,0,-33,0,567949,0
567979,-91,-2052,396,37,-34,-415,14607,-3,-8,130,8,35059,-46,39,127,0,0,1,0,1,0,100,0,100,0,0,-1,3,24,2,30,5,3869,-98,2285,-12,782,9,-9,0,-13,45,0,19831,2876,1166,221,9826,-4228,272,4459,-4,0,0,-33,0,567990,0
567989,-117,-2033,341,22,-13,-538,14584,-77,-36,-163,-168,35072,-66,39,127,0,0,1,0,1,0,100,0,100,0,0,-1,3,24,2,33,6,3851,-142,2270,-16,765,9,-9,0,-13,45,0,19738,2872,1165,0,9826,-4228,272,4469,-4,0,0,-33,0,567990,0
567999,-75,-2052,385,8,8,-592,14525,-149,-112,-252,-168,35080,-46,39,127,0,0,1,0,1,0,100,0,100,0,0,-1,2,24,2,35,7,3836,-186,2253,-18,743,9,-9,0,-13,45,0,19656,2860,1165,0,9826,-4228,272,4479,-4,0,0,-33,0,567990,0
568009,57,-2050,387,5,14,-617,14456,-157,-77,-296,-240,35070,-16,39,127,0,0,1,0,1,0,100,0,100,0,0,-1,2,24,2,38,7,3818,-175,2234,-18,716,9,-9,0,-13,45,0,19563,2847,1164,0,9826,-4228,272,4489,-4,0,0,-33,0,567990,0
568019,122,-2052,346,-14,-7,-585,14381,-189,-30,-322,-280,35054,-23,39,127,0,0,1,0,1,0,100,0,100,0,0,-1,2,24,2,40,8,3803,-164,2216,-17,688,9,-9,0,-13,45,0,19481,2832,1164,0,9826,-4228,272,4499,-4,0,0,-33,0,568006,0
568029,192,-2043,369,-15,-3,-535,14288,-203,-55,-264,-176,35062,-43,39,127,0,0,1,0,1,0,100,0,100,0,0,-1,2,24,2,43,9,3788,-153,2198,-16,660,9,-9,0,-13,45,0,19399,2814,1164,0,9826,-4228,272,4509,-4,0,0,-33,0,568037,0
568039,227,-2065,370,-18,-10,-457,14206,-185,-7,-289,-184,35067,-48,39,127,0,0,1,0,1,0,100,0,100,0,0,-1,2,24,1,45,9,3777,-87,2183,-13,633,9,-9,0,-13,45,0,19341,2798,1163,0,9826,-4228,272,4519,-4,0,0,-33,0,568037,0
568049,231,-2060,351,-17,-34,-353,14120,-189,16,-198,-152,35067,-34,39,127,0,0,1,0,1,0,100,0,100,0,0,-1,2,24,1,48,10,3763,-131,2171,-10,607,9,-9,0,-13,45,0,19270,2781,1163,0,9826,-4228,272,4529,-4,0,0,-33,0,568037,0
568059,229,-2045,348,-20,-34,-283,14053,-127,21,-225,-136,35048,-31,39,127,0,0,1,0,1,0,100,0,100,0,0,-1,2,24,1,50,10,3757,-54,2162,-8,586,9,-9,0,-13,45,0,19235,2769,1163,0,9826,-4228,272,4539,-4,0,0,-33,0,568048,0
568069,223,-2041,336,-15,-35,-187,14000,-102,64,-178,-104,35058,-50,39,127,0,0,1,0,1,0,100,0,100,0,0,-1,2,24,1,53,10,3750,-43,2154,-5,567,9,-9,0,-13,45,0,19199,2759,1163,0,9826,-4228,272,4549,-4,0,0,-33,0,568065,0
568079,185,-2044,327,-2,-38,-131,13968,-69,65,-162,-16,35064,-58,39,127,0,0,1,0,1,0,100,0,100,0,0,-1,2,24,1,55,11,3748,-10,2150,-3,550,9,-9,0,-13,45,0,19188,2753,1162,0,9826,-4228,272,4559,-4,0,0,-33,0,568065,0
568089,148,-2044,335,0,-29,-70,13951,-19,61,-111,-40,35068,-41,39,127,0,0,1,0,1,0,100,0,100,0,0,-1,1,24,1,58,11,3744,-43,2146,-2,537,9,-9,0,-13,45,0,19164,2750,1162,0,9826,-4228,272,4569,-4,0,0,-33,0,568081,0
568099,172,-2034,339,4,-32,-37,13951,-4,65,-213,-72,35060,-28,39,127,0,0,1,0,1,0,100,0,100,0,0,-1,1,24,1,60,11,3746,-10,2145,-1,525,9,-9,0,-13,45,0,19176,2750,1162,0,9826,-4228,272,4579,-4,0,0,-33,0,568099,0
568109,141,-2041,339,20,-17,1,13950,3,20,-210,-24,35053,-32,39,127,0,0,1,0,1,0,100,0,100,0,0,-1,0,24,1,63,12,3744,10,2144,0,515,9,-9,0,-13,45,0,19164,2750,1162,0,9826,-4228,272,4589,-4,0,0,-33,0,568099,0
568119,173,-2045,339,33,-4,17,13950,-2,-2,-187,-104,35058,-52,39,127,0,0,1,0,1,0,100,0,100,0,0,-1,3,24,0,65,12,3744,-32,2145,0,507,9,-9,0,-13,45,0,19164,2750,1162,0,9826,-4228,272,4599,-4,0,0,-33,0,568099,0
568129,145,-2037,327,53,-3,54,13947,2,-3,-180,-32,35065,-51,39,127,0,0,1,0,1,0,100,0,100,0,0,-1,2,24,0,68,12,3746,21,2145,1,498,9,-9,0,-13,45,0,19176,2749,1162,0,9826,-4228,272,4609,-4,0,0,-33,0,568148,0
568139,146,-2024,325,57,3,72,13949,-3,2,-154,-32,35067,-34,38,127,0,0,1,0,1,0,100,0,100,0,0,-1,1,24,0,70,12,3746,0,2147,2,491,9,-9,0,-13,45,0,19176,2750,1162,0,9826,-4228,272,4619,-4,0,0,-33,0,568148,0
568149,133,-2041,365,55,7,110,13949,0,3,-155,-40,35064,-21,38,127,0,0,1,0,1,0,100,0,100,0,0,-1,1,24,0,73,12,3748,32,2150,3,485,9,-9,0,-13,45,0,19188,2750,1162,0,9826,-4228,272,4629,-4,0,0,-33,0,568148,0
568159,95,-2036,369,48,10,128,13952,6,3,-62,-16,35060,-39,39,127,0,0,1,0,1,0,100,0,100,0,0,-1,2,24,0,75,13,3748,10,2154,3,480,9,-9,0,-13,45,0,19188,2750,1162,0,9826,-4228,272,4639,-4,0,0,-33,0,568148,0
568169,80,-2093,408,63,-7,168,13950,-6,-3,-47,-16,35056,-51,39,127,0,0,1,0,1,0,100,0,100,0,0,-1,2,24,3,1,13,3755,54,2158,5,477,9,-9,0,-13,45,0,19223,2750,1163,0,9826,-4228,272,4649,-4,0,0,-33,0,568148,0
568179,120,-2038,364,42,-30,185,13959,20,3,108,80,35068,-41,39,127,0,0,1,0,1,0,100,0,100,0,0,-1,3,24,3,3,13,3759,87,2163,5,475,9,-9,0,-13,45,0,19247,2751,1163,183,9826,-4228,272,4659,-4,0,0,-33,0,568166,0
568189,73,-2050,398,7,-34,196,13971,25,32,270,120,35065,-28,38,127,0,0,1,0,1,0,100,0,100,0,0,-1,2,24,3,6,13,3766,87,2169,5,474,9,-9,0,-13,45,0,19282,2754,1163,458,9826,-4228,272,4669,-4,0,0,-33,0,568201,0
568199,12,-2051,398,8,-39,182,13992,52,16,367,152,35074,-35,38,127,0,0,1,0,1,0,100,0,100,0,0,-1,2,24,3,8,14,3772,76,2175,5,473,9,-9,0,-13,45,0,19318,2757,1163,623,9826,-4228,272,4679,-4,0,0,-33,0,568201,0
568209,24,-2043,417,-15,-33,153,14032,105,58,294,112,35065,-56,39,127,0,0,1,0,1,0,100,0,100,0,0,-1,2,24,1,11,14,3779,43,2180,4,473,9,-9,0,-13,45,0,19353,2765,1163,499,9826,-4228,272,4689,-4,0,0,-33,0,568214,0
568219,22,-2031,406,-29,-38,120,14061,78,26,262,128,35063,-52,39,127,0,0,1,0,1,0,100,0,100,0,0,-1,2,24,1,13,14,3785,76,2184,3,472,9,-9,0,-13,45,0,19388,2770,1163,445,9826,-4228,272,4699,-4,0,0,-33,0,568215,0
568229,1,-2044,410,-52,-36,83,14102,81,0,198,80,35053,-34,39,127,0,0,1,0,1,0,100,0,100,0,0,-1,3,24,1,16,15,3785,21,2187,2,471,9,-9,0,-13,45,0,19388,2778,1163,336,9826,-4228,272,4709,-4,0,0,-33,0,568215,0
568239,-19,-2039,410,-67,-35,39,14125,36,-29,147,56,35059,-56,39,127,0,0,1,0,1,0,100,0,100,0,0,-1,2,24,1,18,15,3792,65,2189,1,468,9,-9,0,-13,45,0,19423,2782,1164,249,9826,-4228,272,4719,-4,0,0,-33,0,568248,0
568249,-5,-2045,400,-80,-41,-7,14142,36,-46,152,80,35060,-76,39,127,0,0,1,0,1,0,100,0,100,0,0,-1,3,24,1,21,16,3792,43,2190,0,464,9,-9,0,-13,45,0,19423,2786,1164,258,9826,-4228,272,4729,-4,0,0,-33,0,568248,0
568259,-37,-2045,400,-95,-44,-47,14142,-2,-39,148,96,35061,-82,39,127,0,0,1,0,1,0,100,0,100,0,0,-1,2,24,1,23,16,3788,-21,2189,-1,460,9,-9,0,-13,45,0,19399,2786,1164,251,9826,-4228,272,4739,-4,0,0,-33,0,568248,0
568269,-42,-2043,411,-113,-51,-94,14142,4,-29,147,0,35054,-61,39,127,0,0,1,0,1,0,100,0,100,0,0,-1,2,24,1,26,17,3790,-21,2187,-2,454,9,-9,0,-13,45,0,19411,2786,1164,249,9826,-4228,272,4749,-4,0,0,-33,0,568248,0
568279,-46,-2038,405,-140,-54,-123,14141,-3,0,149,24,35061,-44,39,127,0,0,1,0,1,0,100,0,100,0,0,-1,2,24,1,28,17,3790,-21,2183,-3,447,9,-9,0,-13,45,0,19411,2785,1164,253,9826,-4228,272,4759,-4,0,0,-33,0,568365,0
568289,-10,-2039,410,-152,-67,-156,14140,-1,-1,120,64,35065,-56,39,127,0,0,1,0,1,0,100,0,100,0,0,-1,2,24,1,31,18,3788,0,2179,-4,438,9,-9,0,-13,45,0,19399,2785,1164,203,9826,-4228,272,4769,-4,0,0,-33,0,568365,0
568299,28,-2031,395,-160,-70,-182,14139,-8,3,55,40,35069,-51,39,127,0,0,1,0,1,0,100,0,100,0,0,-1,3,24,1,33,18,3788,32,2174,-5,428,9,-9,0,-13,45,0,19399,2785,1164,93,9826,-4228,272,4779,-4,0,0,-33,0,568365,0
568309,53,-2056,379,-168,-59,-242,14138,-11,-3,21,8,35064,-50,39,127,0,0,1,0,1,0,100,0,100,0,0,-1,2,24,1,36,19,3783,-10,2167,-7,417,9,-9,0,-13,45,0,19376,2785,1163,35,9826,-4228,272,4789,-4,0,0,-33,0,568365,0
568319,-41,-2047,355,-161,-19,-301,14134,-14,-7,-108,-104,35058,-45,39,127,0,0,1,0,1,0,100,0,100,0,0,-1,2,24,1,38,19,3774,-87,2159,-9,404,9,-9,0,-13,45,0,19329,2784,1163,0,9826,-4228,272,4799,-4,0,0,-33,0,568381,0
568329,91,-2027,380,-172,-12,-311,14117,-48,-40,-314,-152,35058,-54,39,127,0,0,1,0,1,0,100,0,100,0,0,-1,1,24,1,41,20,3766,-76,2150,-9,390,9,-9,0,-13,45,0,19282,2781,1163,0,9826,-4228,272,4809,-4,0,0,-33,0,568398,0
568339,103,-2034,363,-174,-27,-314,14075,-111,-73,-281,-168,35055,-67,39,127,0,0,1,0,1,0,100,0,100,0,0,-1,2,24,1,43,20,3757,-109,2140,-9,374,9,-9,0,-13,45,0,19235,2773,1163,0,9826,-4228,272,4819,-4,0,0,-33,0,568398,0
568349,84,-2046,370,-179,-39,-291,14031,-101,-51,-309,-168,35055,-69,39,127,0,0,1,0,1,0,100,0,100,0,0,-1,2,24,1,46,21,3748,-109,2131,-8,359,9,-9,0,-13,45,0,19188,2765,1162,0,9826,-4228,272,4829,-4,0,0,-33,0,568398,0
568359,86,-2026,379,-183,-30,-313,13975,-114,-19,-254,-160,35052,-44,39,127,0,0,1,0,1,0,100,0,100,0,0,-1,1,24,1,48,21,3739,-87,2122,-9,343,9,-9,0,-13,45,0,19140,2754,1162,0,9826,-4228,272,4839,-4,0,0,-33,0,568398,0
568369,95,-2031,356,-209,-26,-289,13924,-93,-6,-256,-96,35054,-36,39,127,0,0,1,0,1,0,100,0,100,0,0,-1,1,24,1,51,22,3730,-65,2113,-8,328,9,-9,0,-13,45,0,19093,2745,1162,0,9826,-4228,272,4849,-4,0,0,-33,0,568400,0
568379,145,-2037,363,-221,-38,-274,13884,-91,36,-261,-144,35054,-53,39,127,0,0,1,0,1,0,100,0,100,0,0,-1,1,24,1,53,22,3722,-87,2104,-8,313,9,-9,0,-13,45,0,19046,2738,1162,0,9826,-4228,272,4859,-4,0,0,-33,0,568400,0
568389,118,-2043,325,-201,-38,-245,13858,-55,40,-396,-160,35057,-61,39,127,0,0,1,0,1,0,100,0,100,0,0,-1,3,24,1,56,22,3717,-54,2096,-7,299,9,-9,0,-13,45,0,19022,2733,1162,0,9826,-4228,272,4869,-4,0,0,-33,0,568400,0
568399,147,-2031,335,-192,-35,-248,13815,-105,-7,-254,-112,35064,-53,39,127,0,0,1,0,1,0,100,0,100,0,0,-1,2,24,1,58,23,3708,-120,2089,-7,284,9,-9,0,-13,45,0,18975,2725,1161,0,9826,-4228,272,4879,-4,0,0,-33,0,568400,0
568409,145,-2046,324,-193,-35,-213,13771,-116,-39,-280,-128,35074,-51,39,127,0,0,1,0,1,0,100,0,100,0,0,-1,2,24,1,61,23,3702,-87,2082,-6,272,9,-9,0,-13,45,0,18939,2717,1161,0,9826,-4228,272,4889,-4,0,0,-33,0,568400,0
568419,112,-2043,338,-185,-24,-221,13725,-74,1,-197,-128,35087,-51,39,127,0,0,1,0,1,0,100,0,100,0,0,-1,2,24,1,63,23,3695,-87,2075,-6,258,9,-9,0,-13,45,0,18904,2708,1161,0,9826,-4228,272,4899,-4,0,0,-33,0,568400,0
568429,185,-2028,346,-184,-18,-191,13695,-69,40,-196,-48,35102,-50,39,127,0,0,1,0,1,0,100,0,100,0,0,-1,2,24,1,66,24,3693,-43,2069,-5,246,9,-9,0,-13,45,0,18892,2703,1161,0,9826,-4228,272,4909,-4,0,0,-33,0,568448,0
568439,142,-2046,331,-182,-18,-151,13683,-19,54,-296,-96,35100,-24,38,127,0,0,1,0,1,0,100,0,100,0,0,-1,2,24,1,68,24,3689,-32,2064,-4,234,9,-9,0,-13,45,0,18868,2701,1161,0,9826,-4228,272,4919,-4,0,0,-33,0,568448,0
568449,182,-2039,346,-179,-24,-109,13668,-43,29,-302,-88,35089,0,38,127,0,0,1,0,1,0,100,0,100,0,0,-1,1,24,1,71,24,3687,-10,2060,-3,223,9,-9,0,-13,45,0,18856,2698,1161,0,9826,-4228,272,4929,-4,0,0,-33,0,568448,0
568459,184,-2048,342,-178,-28,-65,13638,-80,-43,-226,-72,35075,4,39,127,0,0,1,0,1,0,100,0,100,0,0,-1,1,24,1,73,24,3684,-10,2057,-1,213,9,-9,0,-13,45,0,18844,2692,1161,0,9826,-4228,272,4939,-4,0,0,-33,0,568464,0
568469,143,-2051,339,-178,-25,-41,13612,-41,-19,-180,-48,35061,-9,39,127,0,0,1,0,1,0,100,0,100,0,0,-1,2,24,1,76,24,3682,10,2055,-1,204,9,-9,0,-13,45,0,18833,2688,1161,0,9826,-4228,272,4949,-4,0,0,-33,0,568466,0
568479,138,-2046,342,-178,-22,-21,13603,-18,44,-196,-16,35066,-17,39,127,0,0,1,0,1,0,100,0,100,0,0,-1,2,24,1,78,25,3680,0,2054,0,198,9,-9,0,-13,45,0,18821,2686,1161,0,9826,-4228,272,4959,-4,0,0,-33,0,568467,0
568489,177,-2073,342,-171,-19,-7,13593,-32,20,-171,8,35078,-25,39,127,0,0,1,0,1,0,100,0,100,0,0,-1,2,24,1,81,25,3680,10,2054,0,191,9,-9,0,-13,45,0,18821,2684,1161,0,9826,-4228,272,4969,-4,0,0,-33,0,568524,0
568499,131,-2049,320,-177,-27,9,13589,-7,5,-86,-24,35080,-32,38,127,0,0,1,0,1,0,100,0,100,0,0,-1,2,24,1,83,25,3680,0,2054,0,186,9,-9,0,-13,45,0,18821,2683,1161,0,9826,-4228,272,4979,-4,0,0,-33,0,568532,0
568509,109,-2042,292,-167,-1,0,13585,-7,10,-86,-16,35080,-30,38,127,0,0,1,0,1,0,100,0,100,0,0,-1,1,24,1,1,26,3680,0,2054,0,181,9,-9,0,-13,45,0,18821,2683,1161,0,9826,-4228,272,4989,-4,0,0,-33,0,568532,0
568519,154,-2048,315,-155,-4,16,13587,6,8,-36,-16,35080,-11,39,127,0,0,1,0,1,0,100,0,100,0,0,-1,1,24,1,3,26,3678,-32,2055,0,176,9,-9,0,-13,45,0,18809,2683,1161,0,9826,-4228,272,4999,-4,0,0,-33,0,568532,0
568529,63,-2048,320,-153,-25,45,13580,-16,-10,-74,-8,35085,3,39,127,0,0,1,0,1,0,100,0,100,0,0,-1,3,24,1,6,26,3684,54,2056,1,170,9,-9,0,-13,45,0,18844,2682,1161,0,9826,-4228,272,5009,-4,0,0,-33,0,568532,0
568539,71,-2028,297,-154,-6,49,13589,24,17,88,24,35086,4,39,127,0,0,1,0,1,0,100,0,100,0,0,-1,1,24,1,8,26,3680,-54,2057,1,167,9,-9,0,-13,45,0,18821,2683,1161,149,9826,-4228,272,5019,-4,0,0,-33,0,568532,0
568549,138,-2043,319,-139,18,40,13581,-31,-5,22,8,35085,-3,39,127,0,0,1,0,1,0,100,0,100,0,0,-1,1,24,1,11,27,3687,54,2058,1,164,9,-9,0,-13,45,0,18856,2682,1161,37,9826,-4228,272,5029,-4,0,0,-33,0,568547,0
568559,134,-2015,339,-132,-7,76,13586,9,-14,29,40,35097,7,39,127,0,0,1,0,1,0,100,0,100,0,0,-1,1,24,1,13,27,3684,43,2060,2,160,9,-9,0,-13,45,0,18844,2683,1161,49,9826,-4228,272,5039,-4,0,0,-33,0,568548,0
568569,107,-2041,312,-131,0,72,13583,-9,7,16,56,35108,-2,39,127,0,0,1,0,1,0,100,0,100,0,0,-1,2,24,1,16,27,3684,65,2062,2,158,9,-9,0,-13,45,0,18844,2682,1161,27,9826,-4228,272,5049,-4,0,0,-33,0,568564,0
568579,106,-2060,312,-123,22,73,13591,15,5,107,24,35116,-4,39,127,0,0,1,0,1,0,100,0,100,0,0,-1,2,24,1,18,27,3682,-54,2064,2,156,9,-9,0,-13,45,0,18833,2684,1161,181,9826,-4228,272,5059,-4,0,0,-33,0,568564,0
568589,127,-2037,325,-113,5,88,13584,-18,-10,39,8,35105,3,39,127,0,0,1,0,1,0,100,0,100,0,0,-1,1,24,1,21,28,3687,54,2067,2,153,9,-9,0,-13,45,0,18856,2682,1161,66,9826,-4228,272,5069,-4,0,0,-33,0,568607,0
568599,150,-2032,348,-110,-2,115,13589,3,-2,54,0,35102,6,39,127,0,0,1,0,1,0,100,0,100,0,0,-1,3,24,1,23,28,3684,54,2070,3,151,9,-9,0,-13,45,0,18844,2683,1161,91,9826,-4228,272,5079,-4,0,0,-33,0,568614,0
568609,82,-2045,291,-126,-13,161,13589,-1,14,175,40,35096,-2,39,127,0,0,1,0,1,0,100,0,100,0,0,-1,1,24,1,26,28,3689,43,2074,4,150,9,-9,0,-13,45,0,18868,2683,1161,296,9826,-4228,272,5089,-4,0,0,-33,0,568615,0
568619,163,-2051,318,-112,-18,171,13599,28,10,287,96,35099,-22,39,127,0,0,1,0,1,0,100,0,100,0,0,-1,1,24,1,28,28,3697,54,2079,5,150,9,-9,0,-13,45,0,18915,2685,1161,486,9826,-4228,272,5099,-4,0,0,-33,0,568615,0
568629,111,-2044,331,-104,-23,195,13628,91,58,319,112,35103,-16,39,127,0,0,1,0,1,0,100,0,100,0,0,-1,1,24,1,31,29,3702,32,2085,5,151,9,-9,0,-13,45,0,18939,2691,1161,541,9826,-4228,272,5109,-4,0,0,-33,0,568615,0
568639,163,-2036,336,-106,-39,224,13664,59,52,265,88,35110,-6,39,127,0,0,1,0,1,0,100,0,100,0,0,-1,2,24,1,33,29,3708,87,2091,6,152,9,-9,0,-13,45,0,18975,2697,1161,449,9826,-4228,272,5119,-4,0,0,-33,0,568615,0
568649,71,-2047,288,-103,-20,223,13694,81,-11,294,168,35111,18,39,127,0,0,1,0,1,0,100,0,100,0,0,-1,2,24,1,36,29,3715,43,2098,6,154,9,-9,0,-13,45,0,19010,2703,1162,498,9826,-4228,272,5129,-4,0,0,-33,0,568700,0
568659,142,-2041,311,-92,-19,238,13734,73,15,250,112,35111,28,39,127,0,0,1,0,1,0,100,0,100,0,0,-1,2,24,1,38,29,3722,65,2105,7,157,9,-9,0,-13,45,0,19046,2710,1162,424,9826,-4228,272,5139,-4,0,0,-33,0,568700,0
568669,154,-2067,324,-80,-17,272,13777,73,13,205,128,35100,31,39,127,0,0,1,0,1,0,100,0,100,0,0,-1,1,24,1,41,30,3728,76,2112,8,159,9,-9,0,-13,45,0,19081,2718,1162,347,9826,-4228,272,5149,-4,0,0,-33,0,568715,0
568679,88,-2038,313,-90,-29,272,13797,39,-43,384,152,35094,19,39,127,0,0,1,0,1,0,100,0,100,0,0,-1,1,24,1,43,30,3739,87,2120,8,163,9,-9,0,-13,45,0,19140,2722,1162,651,9826,-4228,272,5159,-4,0,0,-33,0,568716,0
568689,106,-2045,293,-73,-14,277,13836,99,2,354,200,35087,5,39,127,0,0,1,0,1,0,100,0,100,0,0,-1,1,24,1,46,30,3748,98,2129,8,167,9,-9,0,-13,45,0,19188,2729,1162,601,9826,-4228,272,5169,-4,0,0,-33,0,568716,0
568699,113,-2045,319,-66,-9,291,13893,152,77,300,160,35085,-4,39,127,0,0,1,0,1,0,100,0,100,0,0,-1,1,24,1,48,30,3757,87,2137,8,171,9,-9,0,-13,45,0,19235,2739,1163,509,9826,-4228,272,5179,-4,0,0,-33,0,568724,0
568709,138,-2035,313,-67,-23,321,13955,140,45,256,112,35083,-18,39,127,0,0,1,0,1,0,100,0,100,0,0,-1,1,24,1,51,30,3766,87,2147,9,176,9,-9,0,-13,45,0,19282,2751,1163,434,9826,-4228,272,5189,-4,0,0,-33,0,568724,0
568719,127,-2043,296,-58,-20,356,14002,100,-28,319,136,35086,-17,39,127,0,0,1,0,1,0,100,0,100,0,0,-1,1,24,1,53,31,3779,98,2158,10,181,9,-9,0,-13,45,0,19353,2759,1163,542,9826,-4228,272,5199,-4,0,0,-33,0,568724,0
568729,84,-2057,310,-61,-24,394,14050,96,-21,319,208,35089,-9,39,127,0,0,1,0,1,0,100,0,100,0,0,-1,1,24,1,56,31,3790,142,2169,12,188,9,-9,0,-13,45,0,19411,2768,1164,542,9826,-4228,272,5209,-4,0,0,-33,0,568733,0
568739,42,-2035,298,-47,-17,386,14110,142,27,307,184,35100,7,39,127,0,0,1,0,1,0,100,0,100,0,0,-1,1,24,1,58,31,3801,98,2181,11,195,9,-9,0,-13,45,0,19469,2779,1164,521,9826,-4228,272,5219,-4,0,0,-33,0,568734,0
568749,94,-2044,307,-42,-18,412,14175,125,36,292,216,35106,7,39,127,0,0,1,0,1,0,100,0,100,0,0,-1,1,24,1,61,31,3816,164,2193,12,203,9,-9,0,-13,45,0,19551,2792,1164,496,9826,-4228,272,5229,-4,0,0,-33,0,568734,0
568759,58,-2046,298,-37,-25,431,14238,142,2,358,184,35117,6,39,127,0,0,1,0,1,0,100,0,100,0,0,-1,1,24,1,63,31,3827,120,2205,13,211,9,-9,0,-13,45,0,19609,2804,1165,608,9826,-4228,272,5239,-4,0,0,-33,0,568779,0
568769,59,-2057,297,-26,-21,451,14314,173,16,269,144,35113,16,39,127,0,0,1,0,1,0,100,0,100,0,0,-1,1,24,1,66,32,3840,164,2219,13,221,9,-9,0,-13,45,0,19679,2819,1165,457,9826,-4228,272,5249,-4,0,0,-33,0,568781,0
568779,80,-2046,299,-15,-28,466,14390,151,29,269,168,35105,4,39,127,0,0,1,0,1,0,100,0,100,0,0,-1,2,24,0,68,32,3856,175,2233,14,230,9,-9,0,-13,45,0,19761,2834,1165,457,9826,-4228,272,5259,-4,0,0,-33,0,568783,0
568789,40,-2053,321,-11,-18,471,14454,150,-28,350,216,35085,4,39,127,0,0,1,0,1,0,100,0,100,0,0,-1,1,24,0,71,32,3871,175,2247,14,241,9,-9,0,-13,45,0,19843,2846,1166,596,9826,-4228,272,5269,-4,0,0,-33,0,568783,0
568799,53,-2049,330,-12,-25,482,14537,193,20,286,240,35083,-5,39,127,0,0,1,0,1,0,100,0,100,0,0,-1,1,24,0,73,32,3886,175,2261,14,252,9,-9,0,-13,45,0,19924,2862,1166,487,9826,-4228,272,5279,-4,0,0,-33,0,568783,0
568809,35,-2030,318,-8,-32,494,14610,154,22,327,256,35089,-4,39,127,0,0,1,0,1,0,100,0,100,0,1,-1,3,24,1,1,33,3900,109,2277,15,263,9,-9,0,-13,45,0,19994,2877,1167,557,9826,-4228,272,5289,-4,0,0,-33,0,568815,0
568819,-2,-2044,314,0,-23,504,14686,177,-17,341,232,35091,-10,39,127,0,0,1,0,1,0,100,0,100,0,0,-1,1,24,3,2,33,3915,153,2292,15,275,9,-9,0,-13,45,0,20076,2891,1167,581,9826,-4228,272,5299,-4,0,0,-33,0,568815,0
568829,5,-2046,326,-8,-36,502,14773,198,36,307,256,35094,-23,39,127,0,0,1,0,1,0,100,0,100,0,0,-1,1,24,3,5,33,3930,142,2307,15,287,9,-9,0,-13,45,0,20157,2908,1168,523,9826,-4228,272,5309,-4,0,0,-33,0,568820,0
568839,4,-2045,324,2,-44,491,14860,188,22,268,248,35090,-27,39,127,0,0,1,0,1,0,100,0,100,0,0,-1,1,24,3,7,33,3948,164,2322,14,299,9,-9,0,-13,45,0,20251,2925,1168,457,9826,-4228,272,5319,-4,0,0,-33,0,568834,0
568849,-56,-2040,326,27,-57,492,14949,179,-5,254,248,35088,-44,39,127,0,0,1,0,1,0,100,0,100,0,0,-1,1,24,1,10,34,3966,219,2337,15,312,9,-9,0,-13,45,0,20344,2942,1169,433,9826,-4228,272,5329,-4,0,0,-33,0,568834,0
568859,-84,-2033,287,42,-24,422,15029,171,-5,346,248,35087,-35,39,127,0,0,1,0,1,0,100,0,100,0,0,-1,2,24,1,12,34,3979,153,2351,12,324,9,-9,0,-13,45,0,20414,2957,1169,590,9826,-4228,272,5339,-4,0,0,-33,0,568866,0
568869,-37,-2044,358,14,-32,404,15117,195,-7,256,168,35092,-33,39,127,0,0,1,0,1,0,100,0,100,0,0,-1,2,24,1,15,34,3994,164,2364,12,336,9,-9,0,-13,45,0,20495,2973,1170,437,9826,-4228,272,5349,-4,0,0,-33,0,568868,0
568879,-71,-2039,358,13,-29,378,15187,153,-22,317,184,35089,-19,39,127,0,0,1,0,1,0,100,0,100,0,0,-1,1,24,1,17,34,4003,109,2376,11,346,9,-9,0,-13,45,0,20541,2986,1170,541,9826,-4228,272,5359,-4,0,0,-33,0,568868,0
568889,-106,-2041,348,7,-27,341,15259,159,-26,206,160,35090,-7,39,127,0,0,1,0,1,0,100,0,100,0,0,-1,2,24,1,20,35,4014,142,2387,10,356,9,-9,0,-13,45,0,20599,3000,1170,352,9826,-4228,272,5369,-4,0,0,-33,0,568883,0
568899,-107,-2041,347,4,-28,303,15320,120,-12,243,136,35084,-1,39,127,0,0,1,0,1,0,100,0,100,0,0,-1,1,24,1,22,35,4023,76,2396,9,364,9,-9,0,-13,45,0,20645,3011,1171,415,9826,-4228,272,5379,-4,0,0,-33,0,568883,0
568909,-95,-2050,361,-10,-34,257,15358,75,-63,260,152,35087,-3,39,127,0,0,1,0,1,0,100,0,100,0,0,-1,2,24,1,25,35,4031,98,2405,7,372,9,-9,0,-13,45,0,20691,3019,1171,444,9826,-4228,272,5389,-4,0,0,-33,0,568903,0
568919,-92,-2047,381,-31,-36,225,15391,70,-59,361,144,35094,-4,39,127,0,0,1,0,1,0,100,0,100,0,0,-1,1,24,1,27,36,4040,65,2412,6,378,9,-9,0,-13,45,0,20738,3025,1171,617,9826,-4228,272,5399,-4,0,0,-33,0,568917,0
568929,-130,-2049,372,-57,-34,175,15436,106,11,275,96,35092,-23,39,127,0,0,1,0,1,0,100,0,100,0,0,-1,2,24,1,30,36,4045,87,2418,5,384,9,-9,0,-13,45,0,20761,3033,1171,470,9826,-4228,272,5409,-4,0,0,-33,0,568920,0
568939,-74,-2052,380,-63,-30,127,15475,86,19,305,104,35095,-32,39,127,0,0,1,0,1,0,100,0,100,0,0,-1,1,24,1,32,36,4051,43,2423,3,387,9,-9,0,-13,45,0,20796,3041,1172,521,9826,-4228,272,5419,-4,0,0,-33,0,568934,0
568949,-81,-2052,361,-75,-30,100,15508,46,-18,236,56,35094,-40,39,127,0,0,1,0,1,0,100,0,100,0,0,-1,2,24,1,35,37,4056,54,2426,3,390,9,-9,0,-13,45,0,20819,3047,1172,403,9826,-4228,272,5429,-4,0,0,-33,0,568934,0
568959,-86,-2056,350,-78,-24,60,15511,9,-69,384,72,35090,-22,39,127,0,0,1,0,1,0,100,0,100,0,0,-1,4,24,1,37,37,4056,-10,2429,1,391,9,-9,0,-13,45,0,20819,3047,1172,657,9826,-4228,272,5439,-4,0,0,-33,0,568949,0
568969,-77,-2047,325,-77,-17,33,15511,11,-64,395,128,35092,-21,39,127,0,0,1,0,1,0,100,0,100,0,0,-1,2,24,1,40,38,4058,21,2430,1,390,9,-9,0,-13,45,0,20830,3047,1172,676,9826,-4228,272,5449,-4,0,0,-33,0,568966,0
568979,-65,-2050,332,-77,-19,31,15518,12,17,379,112,35086,-21,39,127,0,0,1,0,1,0,100,0,100,0,0,-1,2,24,1,42,38,4058,10,2431,0,389,9,-9,0,-13,45,0,20830,3049,1172,648,9826,-4228,272,5459,-4,0,0,-33,0,568981,0
568989,-47,-2055,337,-79,-23,17,15528,20,14,349,120,35088,-29,39,127,0,0,1,0,1,0,100,0,100,0,0,-1,2,24,1,45,39,4062,54,2432,0,388,9,-9,0,-13,45,0,20853,3051,1172,597,9826,-4228,272,5469,-4,0,0,-33,0,568983,0
568999,-50,-2052,340,-79,-24,8,15545,56,23,319,80,35081,-35,39,127,0,0,1,0,1,0,100,0,100,0,0,-1,2,24,1,47,39,4062,10,2432,0,386,9,-9,0,-13,45,0,20853,3054,1172,546,9826,-4228,272,5479,-4,0,0,-33,0,568983,0
569009,-36,-2048,343,-79,-28,19,15560,17,14,239,72,35088,-50,39,127,0,0,1,0,1,0,100,0,100,0,0,-1,1,24,1,50,40,4064,21,2433,0,383,9,-9,0,-13,45,0,20865,3057,1172,409,9826,-4228,272,5489,-4,0,0,-33,0,569066,0
569019,-55,-2051,335,-80,-27,10,15558,2,-35,275,72,35083,-45,39,127,0,0,1,0,1,0,100,0,100,0,0,-1,1,24,1,52,40,4062,-10,2433,0,381,9,-9,0,-13,45,0,20853,3056,1172,470,9826,-4228,272,5499,-4,0,0,-33,0,569066,0
569029,-45,-2048,326,-79,-26,11,15558,0,-24,276,64,35085,-50,39,127,0,0,1,0,1,0,100,0,100,0,0,-1,2,24,1,55,40,4064,21,2434,0,379,9,-9,0,-13,45,0,20865,3056,1172,472,9826,-4228,272,5509,-4,0,0,-33,0,569066,0
569039,-45,-2050,314,-67,-29,6,15559,-1,-2,305,96,35077,-34,39,127,0,0,1,0,1,0,100,0,100,0,0,-1,1,24,1,57,41,4064,10,2434,0,377,9,-9,0,-13,45,0,20865,3056,1172,522,9826,-4228,272,5519,-4,0,0,-33,0,569066,0
569049,-54,-2051,307,-59,-27,3,15564,14,6,339,120,35078,-39,39,127,0,0,1,0,1,0,100,0,100,0,0,-1,2,24,1,60,41,4069,10,2434,0,375,9,-9,0,-13,45,0,20888,3057,1172,580,9826,-4228,272,5529,-4,0,0,-33,0,569081,0
569059,-51,-2047,310,-63,-28,2,15569,21,14,380,120,35077,-39,39,127,0,0,1,0,1,0,100,0,100,0,0,-1,2,24,1,62,41,4073,43,2434,0,372,9,-9,0,-13,45,0,20911,3058,1172,650,9826,-4228,272,5539,-4,0,0,-33,0,569084,0
569069,-34,-2047,323,-51,-27,6,15575,12,5,370,176,35074,-39,39,127,0,0,1,0,1,0,100,0,100,0,0,-1,1,24,1,65,42,4071,43,2434,0,370,9,-9,0,-13,45,0,20900,3060,1172,633,9826,-4228,272,5549,-4,0,0,-33,0,569084,0
569079,-25,-2051,319,-43,-21,15,15588,40,6,383,56,35075,-48,39,127,0,0,1,0,1,0,100,0,100,0,0,-1,3,24,1,67,42,4071,-32,2435,0,368,9,-9,0,-13,45,0,20900,3062,1172,655,9826,-4228,272,5559,-4,0,0,-33,0,569084,0
569089,-31,-2046,320,-43,-25,25,15607,60,26,268,56,35074,-47,39,127,0,0,1,0,1,0,100,0,100,0,0,-1,2,24,1,70,42,4073,-10,2435,0,365,9,-9,0,-13,45,0,20911,3066,1172,458,9826,-4228,272,5569,-4,0,0,-33,0,569084,0
569099,-19,-2047,321,-35,-24,40,15630,37,27,97,88,35082,-62,39,127,0,0,1,0,1,0,100,0,100,0,0,-1,2,24,1,72,43,4073,21,2436,1,363,9,-9,0,-13,45,0,20911,3070,1172,166,9826,-4228,272,5579,-4,0,0,-33,0,569084,0
569109,-41,-2049,324,-34,-19,41,15634,3,-29,166,88,35091,-64,39,127,0,0,1,0,1,0,100,0,100,0,0,-1,2,24,1,75,43,4075,10,2438,1,362,9,-9,0,-13,45,0,20923,3071,1172,284,9826,-4228,272,5589,-4,0,0,-33,0,569114,0
569119,-31,-2056,330,-18,-10,42,15639,14,-33,226,72,35103,-62,39,127,0,0,1,0,1,0,100,0,100,0,0,-1,2,24,1,77,43,4082,32,2439,1,360,9,-9,0,-13,45,0,20958,3072,1173,387,9826,-4228,272,5599,-4,0,0,-33,0,569117,0
569129,-27,-2047,317,-15,-12,45,15655,50,21,297,88,35096,-62,39,127,0,0,1,0,1,0,100,0,100,0,0,-1,2,24,1,80,43,4080,-43,2440,1,359,9,-9,0,-13,45,0,20946,3075,1173,508,9826,-4228,272,5609,-4,0,0,-33,0,569120,0
569139,-17,-2048,320,-15,-13,68,15680,50,41,63,72,35092,-57,39,127,0,0,1,0,1,0,100,0,100,0,0,-1,1,24,1,82,44,4084,43,2442,2,358,9,-9,0,-13,45,0,20969,3080,1173,107,9826,-4228,272,5619,-4,0,0,-33,0,569150,0
569149,-12,-2051,306,-6,-16,78,15689,3,-15,155,32,35086,-62,39,127,0,0,1,0,1,0,100,0,100,0,0,-1,1,24,1,85,44,4086,10,2444,2,357,9,-9,0,-13,45,0,20981,3082,1173,265,9826,-4228,272,5629,-4,0,0,-33,0,569155,0
569159,-20,-2012,309,23,-12,81,15690,22,-51,235,120,35087,-55,39,127,0,0,1,0,1,0,100,0,100,0,0,-1,2,24,1,87,44,4093,32,2447,2,356,9,-9,0,-13,45,0,21015,3082,1173,402,9826,-4228,272,5639,-4,0,0,-33,0,569156,0
569169,6,-2031,306,19,-13,125,15698,12,4,319,72,35080,-49,39,127,0,0,1,0,1,0,100,0,100,0,0,-1,1,24,1,1,44,4095,54,2450,3,356,9,-9,0,-13,45,0,21027,3084,1173,546,9826,-4228,272,5649,-4,0,0,-33,0,569156,0
569179,0,-2036,320,25,-12,136,15704,5,10,374,120,35084,-40,39,127,0,0,1,0,1,0,100,0,100,0,0,-1,2,24,1,3,45,4100,76,2454,4,356,9,-9,0,-13,45,0,21050,3085,1173,640,9826,-4228,272,5659,-4,0,0,-33,0,569198,0
569189,-9,-2044,338,31,-14,177,15713,28,2,453,136,35085,-44,39,127,0,0,1,0,1,0,100,0,100,0,0,-1,2,24,1,6,45,4102,21,2458,5,358,9,-9,0,-13,45,0,21062,3087,1173,776,9826,-4228,272,5669,-4,0,0,-33,0,569201,0
569199,2,-2051,356,36,-14,188,15737,67,46,399,152,35086,-40,39,127,0,0,1,0,1,0,100,0,100,0,0,-1,2,24,1,8,45,4111,98,2464,5,360,9,-9,0,-13,45,0,21108,3092,1174,684,9826,-4228,272,5679,-4,0,0,-33,0,569202,0
569209,-17,-2037,349,33,-31,232,15777,84,61,376,136,35078,-38,39,127,0,0,1,0,1,0,100,0,100,0,0,-1,2,24,1,11,45,4115,65,2470,7,362,9,-9,0,-13,45,0,21131,3099,1174,644,9826,-4228,272,5689,-4,0,0,-33,0,569206,0
569219,-27,-2034,349,20,-30,238,15823,122,52,305,160,35076,-36,39,127,0,0,1,0,1,0,100,0,100,0,0,-1,1,24,1,13,45,4124,76,2477,7,366,9,-9,0,-13,45,0,21178,3109,1174,523,9826,-4228,272,5699,-4,0,0,-33,0,569210,0
569229,-21,-2050,339,41,-32,253,15877,119,32,244,72,35084,-24,39,127,0,0,1,0,1,0,100,0,100,0,0,-1,1,24,1,16,46,4135,98,2486,7,372,9,-9,0,-13,45,0,21235,3119,1175,418,9826,-4228,272,5709,-4,0,0,-33,0,569240,0
569239,-15,-2035,341,31,-22,280,15914,53,-32,312,200,35092,-21,39,127,0,0,1,0,1,0,100,0,100,0,0,-1,3,24,1,18,46,4141,87,2494,8,377,9,-9,0,-13,45,0,21270,3126,1175,535,9826,-4228,272,5719,-4,0,0,-33,0,569240,0
569249,-47,-2039,333,34,-31,308,15939,60,-65,380,160,35095,-34,39,127,0,0,1,0,1,0,100,0,100,0,0,-1,3,24,1,21,46,4150,87,2502,9,383,9,-9,0,-13,45,0,21316,3131,1175,652,9826,-4228,272,5729,-4,0,0,-33,0,569240,0
569259,-19,-2029,324,37,-41,325,15975,78,11,396,224,35085,-45,39,127,0,0,1,0,1,0,100,0,100,0,0,-1,3,24,1,23,47,4159,120,2512,9,389,9,-9,0,-13,45,0,21363,3138,1176,679,9826,-4228,272,5739,-4,0,0,-33,0,569240,0
569269,-85,-2049,327,48,-34,352,16028,144,55,341,168,35090,-47,39,127,0,0,1,0,1,0,100,0,100,0,0,-1,1,24,1,26,47,4170,120,2522,10,396,9,-9,0,-13,45,0,21421,3149,1176,585,9826,-4228,272,5749,-4,0,0,-33,0,569266,0
569279,-31,-2062,336,55,-32,349,16099,165,76,260,128,35097,-27,39,127,0,0,1,0,1,0,100,0,100,0,0,-1,2,24,1,28,47,4181,76,2533,10,404,9,-9,0,-13,45,0,21478,3163,1176,446,9826,-4228,272,5759,-4,0,0,-33,0,569266,0
569289,-59,-2039,325,61,-36,376,16159,119,4,250,192,35101,-15,39,127,0,0,1,0,1,0,100,0,100,0,0,-1,1,24,1,31,48,4194,142,2544,11,413,9,-9,0,-13,45,0,21547,3175,1177,429,9826,-4228,272,5769,-4,0,0,-33,0,569266,0
569299,-91,-2077,355,57,-31,378,16209,109,-45,340,168,35096,-15,39,127,0,0,1,0,1,0,100,0,100,0,0,-1,2,24,1,33,48,4203,98,2556,11,423,9,-9,0,-13,45,0,21593,3185,1177,584,9826,-4228,272,5779,-4,0,0,-33,0,569300,0
569309,-78,-2041,338,63,-30,382,16272,138,7,268,168,35093,-30,39,127,0,0,1,0,1,0,100,0,100,0,0,-1,1,24,1,36,48,4214,142,2568,11,433,9,-9,0,-13,45,0,21651,3197,1178,461,9826,-4228,272,5789,-4,0,0,-33,0,569300,0
569319,-51,-2039,359,64,-37,397,16330,116,13,306,184,35093,-42,39,127,0,0,1,0,1,0,100,0,100,0,0,-1,2,24,1,38,48,4225,87,2580,12,443,9,-9,0,-13,45,0,21709,3208,1178,526,9826,-4228,272,5799,-4,0,0,-33,0,569300,0
569329,-100,-2037,340,66,-38,394,16383,98,-22,328,152,35097,-52,39,127,0,0,1,0,1,0,100,0,100,0,0,-1,2,24,1,41,49,4238,87,2592,12,453,9,-9,0,-13,45,0,21778,3219,1179,564,9826,-4228,272,5809,-4,0,0,-33,0,569332,0
569339,-138,-2033,345,68,-40,393,16441,126,2,319,248,35101,-59,39,127,0,0,1,0,1,0,100,0,100,0,0,-1,2,24,1,43,49,4251,131,2603,11,464,9,-9,0,-13,45,0,21847,3230,1180,549,9826,-4228,272,5819,-4,0,0,-33,0,569332,0
569349,-111,-2048,376,68,-51,399,16510,154,34,312,184,35107,-68,39,127,0,0,1,0,1,0,100,0,100,0,0,-1,2,24,1,46,49,4264,120,2615,12,474,9,-9,0,-13,45,0,21916,3243,1180,537,9826,-4228,272,5829,-4,0,0,-33,0,569332,0
569359,-135,-2037,361,64,-54,389,16580,152,20,320,184,35104,-58,39,127,0,0,1,0,1,0,100,0,100,0,0,-1,2,24,1,48,49,4273,76,2627,11,484,9,-9,0,-13,45,0,21962,3257,1181,551,9826,-4228,272,5839,-4,0,0,-33,0,569349,0
569369,-114,-2034,377,56,-54,377,16652,144,0,228,152,35108,-42,39,127,0,0,1,0,1,0,100,0,100,0,0,-1,4,24,1,51,50,4289,175,2639,11,495,9,-9,0,-13,45,0,22043,3270,1181,393,9826,-4228,272,5849,-4,0,0,-33,0,569383,0
569379,-177,-2022,384,75,-46,370,16712,113,-26,310,184,35112,-22,39,127,0,0,1,0,1,0,100,0,100,0,0,-1,3,24,1,53,50,4300,109,2651,11,506,9,-9,0,-13,45,0,22100,3282,1182,535,9826,-4228,272,5859,-4,0,0,-33,0,569398,0
569389,-204,-2017,369,53,-56,332,16763,116,-43,324,128,35108,-18,39,127,0,0,1,0,1,0,100,0,100,0,0,-1,1,24,1,56,50,4308,98,2661,10,516,9,-9,0,-13,45,0,22147,3292,1182,559,9826,-4228,272,5869,-4,0,0,-33,0,569400,0
569399,-215,-2043,397,45,-46,293,16821,148,5,298,160,35096,-11,39,127,0,0,1,0,1,0,100,0,100,0,0,-1,2,24,1,58,51,4319,76,2671,8,525,9,-9,0,-13,45,0,22204,3303,1183,514,9826,-4228,272,5879,-4,0,0,-33,0,569400,0
569409,-199,-2043,372,55,-56,241,16883,129,29,229,120,35087,-8,39,127,0,0,1,0,1,0,100,0,100,0,0,-1,3,24,1,61,51,4326,65,2679,7,535,9,-9,0,-13,45,0,22239,3315,1183,395,9826,-4228,272,5889,-4,0,0,-33,0,569416,0
569419,-212,-2029,376,28,-42,202,16914,58,-62,299,136,35091,8,39,127,0,0,1,0,1,0,100,0,100,0,0,-1,1,24,1,63,51,4335,65,2686,6,542,9,-9,0,-13,45,0,22285,3321,1183,516,9826,-4228,272,5899,-4,0,0,-33,0,569432,0
569429,-208,-2037,414,3,-39,161,16944,70,-54,331,144,35092,3,39,127,0,0,1,0,1,0,100,0,100,0,0,-1,1,24,1,66,52,4339,43,2692,4,548,9,-9,0,-13,45,0,22308,3327,1184,572,9826,-4228,272,5909,-4,0,0,-33,0,569432,0
569439,-207,-2045,395,-7,-36,115,16969,59,-2,407,160,35094,-10,39,127,0,0,1,0,1,0,100,0,100,0,0,-1,2,24,1,68,52,4341,-43,2696,3,552,9,-9,0,-13,45,0,22319,3332,1184,703,9826,-4228,272,5919,-4,0,0,-33,0,569432,0
569449,-279,-2068,415,-10,-58,75,17014,98,33,219,120,35100,-10,39,127,0,0,1,0,1,0,100,0,100,0,0,-1,3,24,1,71,53,4350,54,2699,2,556,9,-9,0,-13,45,0,22366,3340,1184,378,9826,-4228,272,5929,-4,0,0,-33,0,569432,0
569459,-222,-2053,392,-11,-62,29,17055,90,27,138,48,35113,-13,39,127,0,0,1,0,1,0,100,0,100,0,0,-1,2,24,1,73,53,4350,32,2700,0,559,9,-9,0,-13,45,0,22366,3348,1184,238,9826,-4228,272,5939,-4,0,0,-33,0,569483,0
569469,-180,-2030,439,-54,-37,-5,17065,-28,-74,66,24,35113,-32,39,127,0,0,1,0,1,0,100,0,100,0,0,-1,1,24,1,76,54,4348,-21,2701,0,559,9,-9,0,-13,45,0,22354,3350,1184,114,9826,-4228,272,5949,-4,0,0,-33,0,569483,0
569479,-219,-2028,422,-74,-36,-38,17065,15,-87,95,64,35105,-33,39,127,0,0,1,0,1,0,100,0,100,0,0,-1,2,24,1,78,54,4352,32,2700,-1,559,9,-9,0,-13,45,0,22377,3350,1184,164,9826,-4228,272,5959,-4,0,0,-33,0,569483,0
569489,-201,-2038,393,-77,-38,-67,17066,-13,2,174,48,35092,-30,39,127,0,0,1,0,1,0,100,0,100,0,0,-1,2,24,1,81,55,4350,-21,2699,-2,558,9,-9,0,-13,45,0,22366,3350,1184,300,9826,-4228,272,5969,-4,0,0,-33,0,569483,0
569499,-174,-2038,393,-91,-37,-86,17067,1,-5,132,24,35090,-27,39,127,0,0,1,0,1,0,100,0,100,0,0,-1,2,24,1,83,55,4350,-32,2696,-2,555,9,-9,0,-13,45,0,22366,3350,1184,228,9826,-4228,272,5979,-4,0,0,-33,0,569483,0
569509,-183,-2041,376,-100,-42,-104,17065,5,-6,128,16,35096,-29,39,127,0,0,1,0,1,0,100,0,100,0,0,-1,2,24,1,86,56,4350,-21,2693,-3,552,9,-9,0,-13,45,0,22366,3350,1184,221,9826,-4228,272,5989,-4,0,0,-33,0,569506,0
569519,-142,-2054,361,-102,-39,-116,17063,-9,-6,93,32,35101,-38,39,127,0,0,1,0,1,0,100,0,100,0,0,-1,3,24,1,88,56,4348,-32,2690,-3,547,9,-9,0,-13,45,0,22354,3350,1184,160,9826,-4228,272,5999,-4,0,0,-33,0,569516,0
569529,-135,-2040,343,-97,-27,-107,17063,-5,1,58,32,35100,-38,39,127,0,0,1,0,1,0,100,0,100,0,0,-1,2,24,1,91,57,4346,-54,2687,-3,542,9,-9,0,-13,45,0,22342,3350,1184,100,9826,-4228,272,6009,-4,0,0,-33,0,569516,0
569539,-93,-2056,345,-91,-24,-101,17058,-24,-7,-64,8,35105,-33,39,127,0,0,1,0,1,0,100,0,100,0,0,-1,1,24,1,93,57,4343,-21,2684,-3,537,9,-9,0,-13,45,0,22331,3349,1184,0,9826,-4228,272,6019,-4,0,0,-33,0,569558,0
569549,-93,-2040,330,-78,-23,-79,17058,5,-3,-141,-16,35111,-30,39,127,0,0,1,0,1,0,100,0,100,0,0,-1,1,24,1,96,58,4343,10,2681,-2,532,9,-9,0,-13,45,0,22331,3349,1184,0,9826,-4228,272,6029,-4,0,0,-33,0,569559,0
569559,-96,-2039,342,-72,-27,-64,17056,-6,12,-139,-48,35116,-33,39,127,0,0,1,0,1,0,100,0,100,0,0,-1,1,24,1,98,58,4343,10,2679,-1,527,9,-9,0,-13,45,0,22331,3348,1184,0,9826,-4228,272,6039,-4,0,0,-33,0,569559,0
569569,-88,-2033,351,-52,-21,-39,17056,5,-1,-155,-48,35108,-35,39,127,0,0,1,0,1,0,100,0,100,0,0,-1,1,5,1,101,58,4343,32,2677,-1,523,9,-9,0,-13,45,0,22331,3348,1184,0,9826,-4228,272,6049,-4,0,0,-33,0,569566,0
569579,-101,-2033,363,-49,-20,-28,17056,0,-1,-123,-24,35100,-32,39,127,0,0,1,0,1,0,100,0,100,0,0,-1,1,5,1,103,59,4339,-32,2676,0,519,9,-9,0,-13,45,0,22308,3348,1184,0,9826,-4228,272,6059,-4,0,0,-33,0,569567,0
569589,-114,-2039,354,-46,-24,-15,17054,-9,-8,-174,-40,35107,-35,39,127,0,0,1,0,1,0,100,0,100,0,0,-1,2,5,1,106,59,4341,-21,2675,0,516,9,-9,0,-13,45,0,22319,3348,1184,0,9826,-4228,272,6069,-4,0,0,-33,0,569583,0
569599,-123,-2041,358,-43,-20,-8,17054,1,-3,-197,-64,35116,-38,39,127,0,0,1,0,1,0,100,0,100,0,0,-1,2,5,1,108,59,4341,-10,2675,0,514,9,-9,0,-13,45,0,22319,3348,1184,0,9826,-4228,272,6079,-4,0,0,-33,0,569598,0
569609,-135,-2029,358,-34,-12,1,17054,8,5,-166,-40,35112,-39,39,127,0,0,1,0,1,0,100,0,100,0,0,-1,2,6,1,111,59,4343,32,2675,0,512,9,-9,0,-13,45,0,22331,3348,1184,0,9826,-4228,272,6089,-4,0,0,-33,0,569601,0
569619,-148,-2028,340,-30,-15,3,17055,4,6,-128,-48,35104,-41,39,127,0,0,1,0,1,0,100,0,100,0,0,-1,2,6,1,113,60,4341,-21,2675,0,511,9,-9,0,-13,45,0,22319,3348,1184,0,9826,-4228,272,6099,-4,0,0,-33,0,569618,0
569629,-157,-2031,337,-13,-10,-2,17054,20,0,-117,-56,35102,-42,39,127,0,0,1,0,1,0,100,0,100,0,0,-1,3,6,1,116,60,4343,10,2675,0,510,9,-9,0,-13,45,0,22331,3348,1184,0,9826,-4228,272,6109,-4,0,0,-33,0,569633,0
569639,-150,-2032,336,-9,-14,-4,17053,-11,0,-78,-16,35101,-45,39,127,0,0,1,0,1,0,100,0,100,0,0,-1,2,6,1,118,60,4343,0,2675,0,509,9,-9,0,-13,45,0,22331,3348,1184,0,9826,-4228,272,6119,-4,0,0,-33,0,569633,0
569649,-126,-2039,363,10,-7,-2,17055,-1,-2,-98,-24,35099,-44,39,127,0,0,1,0,1,0,100,0,100,0,0,-1,1,6,1,1,60,4346,21,2675,0,507,9,-9,0,-13,45,0,22342,3348,1184,0,9826,-4228,272,6129,-4,0,0,-33,0,569652,0
569659,-134,-2033,390,6,-7,0,17055,0,1,-81,-24,35095,-44,39,127,0,0,1,0,1,0,100,0,100,0,0,-1,1,6,1,3,60,4343,0,2675,0,506,9,-9,0,-13,45,0,22331,3348,1184,0,9826,-4228,272,6139,-4,0,0,-33,0,569655,0
569669,-143,-2084,413,7,-13,11,17056,4,5,-81,8,35100,-35,39,127,0,0,1,0,1,0,100,0,100,0,0,-1,1,6,1,6,61,4343,0,2675,0,504,9,-9,0,-13,45,0,22331,3348,1184,0,9826,-4228,272,6149,-4,0,0,-33,0,569655,0
569679,-109,-2044,377,7,-29,10,17054,-7,-2,-93,16,35115,-33,39,127,0,0,1,0,1,0,100,0,100,0,0,-1,2,6,1,8,61,4346,21,2675,0,503,9,-9,0,-13,45,0,22342,3348,1184,0,9826,-4228,272,6159,-4,0,0,-33,0,569683,0
569689,-130,-2034,387,-8,-15,19,17055,-1,-2,-91,-56,35119,-39,39,127,0,0,1,0,1,0,100,0,100,0,0,-1,3,6,1,11,61,4343,0,2676,0,502,9,-9,0,-13,45,0,22331,3348,1184,0,9826,-4228,272,6169,-4,0,0,-33,0,569683,0
569699,-138,-2040,392,-21,-8,27,17056,15,7,-76,-24,35110,-40,39,127,0,0,1,0,1,0,100,0,100,0,0,-1,2,6,1,13,62,4341,-21,2676,0,501,9,-9,0,-13,45,0,22319,3348,1184,0,9826,-4228,272,6179,-4,0,0,-33,0,569683,0
569709,-142,-2034,372,-16,-21,24,17052,-23,-8,-131,-16,35097,-34,39,127,0,0,1,0,1,0,100,0,100,0,0,-1,2,6,1,16,62,4343,10,2677,0,500,9,-9,0,-13,45,0,22331,3348,1184,0,9826,-4228,272,6189,-4,0,0,-33,0,569700,0
569719,-117,-2034,374,-14,-14,31,17055,-2,0,-116,-24,35101,-35,39,127,0,0,1,0,1,0,100,0,100,0,0,-1,2,6,1,18,62,4343,0,2678,0,500,9,-9,0,-13,45,0,22331,3348,1184,0,9826,-4228,272,6199,-4,0,0,-33,0,569721,0
569729,-148,-2040,390,-37,-14,47,17056,6,10,-80,-24,35109,-47,39,127,0,0,1,0,1,0,100,0,100,0,0,-1,1,6,1,21,63,4346,10,2679,1,500,9,-9,0,-13,45,0,22342,3348,1184,0,9826,-4228,272,6209,-4,0,0,-33,0,569721,0
569739,-164,-2044,391,-34,-11,47,17058,6,-1,-11,-8,35106,-51,39,127,0,0,1,0,1,0,100,0,100,0,0,-1,2,6,1,23,63,4348,43,2681,1,500,9,-9,0,-13,45,0,22354,3349,1184,0,9826,-4228,272,6219,-4,0,0,-33,0,569721,0
569749,-116,-2032,384,-32,-16,44,17060,7,4,48,-8,35097,-43,39,127,0,0,1,0,1,0,100,0,100,0,0,-1,2,6,1,26,63,4346,-32,2682,1,501,9,-9,0,-13,45,0,22342,3349,1184,83,9826,-4228,272,6229,-4,0,0,-33,0,569859,0
569759,-150,-2031,393,-45,-20,49,17057,4,-3,30,-16,35099,-35,39,127,0,0,1,0,1,0,100,0,100,0,0,-1,3,6,1,28,64,4346,-21,2683,1,501,9,-9,0,-13,45,0,22342,3348,1184,51,9826,-4228,272,6239,-4,0,0,-33,0,569859,0
569769,-142,-2032,382,-50,-30,58,17059,0,-3,33,48,35107,-37,39,127,0,0,1,0,1,0,100,0,100,0,0,-1,2,6,1,31,64,4350,32,2685,1,501,9,-9,0,-13,45,0,22366,3349,1184,57,9826,-4228,272,6249,-4,0,0,-33,0,569868,0
569779,-153,-2021,379,-50,-46,86,17062,-3,15,100,32,35105,-38,39,127,0,0,1,0,1,0,100,0,100,0,0,-1,2,6,1,33,65,4352,43,2687,2,503,9,-9,0,-13,45,0,22377,3349,1184,172,9826,-4228,272,6259,-4,0,0,-33,0,569869,0
569789,-179,-2028,390,-58,-33,58,17065,20,1,196,120,35092,-39,39,127,0,0,1,0,1,0,100,0,100,0,0,-1,2,6,1,36,65,4354,21,2689,1,504,9,-9,0,-13,45,0,22389,3350,1184,339,9826,-4228,272,6269,-4,0,0,-33,0,569869,0
569799,-165,-2040,397,-51,-26,56,17067,-4,-7,232,24,35086,-38,39,127,0,0,1,0,1,0,100,0,100,0,0,-1,2,6,1,38,65,4357,43,2691,1,505,9,-9,0,-13,45,0,22400,3350,1184,401,9826,-4228,272,6279,-4,0,0,-33,0,569869,0
569809,-120,-2030,379,-58,-27,38,17070,10,-7,322,88,35085,-43,39,127,0,0,1,0,1,0,100,0,100,0,0,-1,2,6,1,41,66,4357,10,2692,1,506,9,-9,0,-13,45,0,22400,3351,1184,557,9826,-4228,272,6289,-4,0,0,-33,0,569869,0
569819,-142,-2035,397,-67,-27,35,17076,7,3,366,128,35090,-43,39,127,0,0,1,0,1,0,100,0,100,0,0,-1,1,6,1,43,66,4357,-32,2693,1,506,9,-9,0,-13,45,0,22400,3352,1184,633,9826,-4228,272,6299,-4,0,0,-33,0,569869,0
569829,-147,-2037,380,-78,-41,35,17079,1,-1,377,104,35088,-52,39,127,0,0,1,0,1,0,100,0,100,0,0,-1,4,6,1,46,67,4363,21,2695,1,507,9,-9,0,-13,45,0,22435,3353,1185,652,9826,-4228,272,6309,-4,0,0,-33,0,569869,0
569839,-184,-2035,371,-71,-38,33,17089,21,2,441,96,35086,-48,39,127,0,0,1,0,1,0,100,0,100,0,0,-1,2,6,1,48,67,4363,0,2696,1,507,9,-9,0,-13,45,0,22435,3355,1185,763,9826,-4228,272,6319,-4,0,0,-33,0,569917,0
569849,-172,-2042,390,-78,-32,16,17098,23,13,351,96,35087,-44,39,127,0,0,1,0,1,0,100,0,100,0,0,-1,2,6,1,51,67,4368,54,2696,0,508,9,-9,0,-13,45,0,22458,3356,1185,607,9826,-4228,272,6329,-4,0,0,-33,0,569917,0
569859,-175,-2041,403,-84,-32,11,17114,38,11,328,40,35088,-45,39,127,0,0,1,0,1,0,100,0,100,0,0,-1,3,6,1,53,68,4365,10,2697,0,508,9,-9,0,-13,45,0,22446,3359,1185,567,9826,-4228,272,6339,-4,0,0,-33,0,569921,0
569869,-170,-2038,391,-89,-32,7,17126,13,6,205,40,35086,-40,39,127,0,0,1,0,1,0,100,0,100,0,0,-1,2,6,1,56,68,4368,21,2697,0,508,9,-9,0,-13,45,0,22458,3362,1185,354,9826,-4228,272,6349,-4,0,0,-33,0,569921,0
569879,-199,-2036,378,-92,-30,-6,17125,2,-34,264,56,35083,-29,39,127,0,0,1,0,1,0,100,0,100,0,0,-1,2,6,1,58,68,4368,54,2697,0,507,9,-9,0,-13,45,0,22458,3362,1185,456,9826,-4228,272,6359,-4,0,0,-33,0,569922,0
569889,-154,-2036,389,-85,-28,-22,17128,8,-10,300,88,35087,-35,39,127,0,0,1,0,1,0,100,0,100,0,0,-1,2,6,1,61,69,4368,10,2697,0,507,9,-9,0,-13,45,0,22458,3362,1185,519,9826,-4228,272,6369,-4,0,0,-33,0,569922,0
569899,-162,-2035,382,-91,-27,-30,17130,-4,1,268,48,35100,-43,39,127,0,0,1,0,1,0,100,0,100,0,0,-1,3,6,1,63,69,4368,21,2696,0,506,9,-9,0,-13,45,0,22458,3363,1185,463,9826,-4228,272,6379,-4,0,0,-33,0,569922,0
569909,-156,-2043,384,-98,-30,-33,17129,3,-4,264,80,35109,-40,39,127,0,0,1,0,1,0,100,0,100,0,0,-1,2,6,1,66,70,4368,21,2695,-1,504,9,-9,0,-13,45,0,22458,3362,1185,456,9826,-4228,272,6389,-4,0,0,-33,0,569922,0
569919,-158,-2037,388,-94,-29,-37,17130,-7,5,278,80,35111,-40,39,127,0,0,1,0,1,0,100,0,100,0,0,-1,1,6,1,68,70,4368,0,2694,-1,503,9,-9,0,-13,45,0,22458,3363,1185,481,9826,-4228,272,6399,-4,0,0,-33,0,569922,0
569929,-163,-2043,382,-103,-31,-37,17131,7,-3,252,56,35099,-28,39,127,0,0,1,0,1,0,100,0,100,0,0,-1,1,6,1,71,71,4368,10,2693,-1,501,9,-9,0,-13,45,0,22458,3363,1185,436,9826,-4228,272,6409,-4,0,0,-33,0,569922,0
569939,-167,-2028,385,-103,-36,-41,17130,6,1,288,80,35107,-26,39,127,0,0,1,0,1,0,100,0,100,0,0,-1,1,6,1,73,71,4368,0,2691,-1,499,9,-9,0,-13,45,0,22458,3363,1185,498,9826,-4228,272,6419,-4,0,0,-33,0,569934,0
569949,-157,-2038,378,-106,-32,-47,17130,0,6,280,80,35112,-23,39,127,0,0,1,0,1,0,100,0,100,0,0,-1,1,6,1,76,71,4368,0,2690,-1,497,9,-9,0,-13,45,0,22458,3363,1185,484,9826,-4228,272,6429,-4,0,0,-33,0,569939,0
569959,-153,-2038,374,-99,-35,-46,17130,-3,-5,274,112,35113,-33,39,127,0,0,1,0,1,0,100,0,100,0,0,-1,2,6,1,78,72,4368,0,2688,-1,495,9,-9,0,-13,45,0,22458,3363,1185,474,9826,-4228,272,6439,-4,0,0,-33,0,569972,0
569969,-150,-2034,369,-97,-30,-47,17129,-7,3,222,104,35108,-42,39,127,0,0,1,0,1,0,100,0,100,0,0,-1,2,6,1,81,72,4363,-32,2687,-1,493,9,-9,0,-13,45,0,22435,3362,1185,384,9826,-4228,272,6449,-4,0,0,-33,0,569983,0
569979,-118,-2028,373,-105,-25,-43,17131,15,0,239,80,35099,-54,39,127,0,0,1,0,1,0,100,0,100,0,0,-1,3,6,1,83,72,4368,0,2685,-1,490,9,-9,0,-13,45,0,22458,3363,1185,413,9826,-4228,272,6459,-4,0,0,-33,0,569983,0
569989,-140,-2044,358,-99,-31,-32,17131,-2,5,274,80,35087,-55,39,127,0,0,1,0,1,0,100,0,100,0,0,-1,1,6,1,86,73,4365,-21,2684,0,488,9,-9,0,-13,45,0,22446,3363,1185,474,9826,-4228,272,6469,-4,0,0,-33,0,569988,0
569999,-135,-2036,351,-94,-35,-31,17130,-9,-11,218,48,35077,-56,39,127,0,0,1,0,1,0,100,0,100,0,0,-1,2,6,1,88,73,4365,10,2683,0,486,9,-9,0,-13,45,0,22446,3363,1185,377,9826,-4228,272,6479,-4,0,0,-33,0,569988,0
570009,-160,-2046,369,-87,-26,-31,17132,9,2,240,40,35074,-46,39,127,0,0,1,0,1,0,100,0,100,0,0,-1,3,6,1,91,73,4365,-21,2682,0,484,9,-9,0,-13,45,0,22446,3363,1185,415,9826,-4228,272,6489,-4,0,0,-33,0,570004,0
570019,-159,-2047,379,-84,-27,-28,17128,-5,-7,188,72,35086,-58,39,127,0,0,1,0,1,0,100,0,100,0,0,-1,2,6,1,93,74,4365,0,2681,0,482,9,-9,0,-13,45,0,22446,3362,1185,325,9826,-4228,272,6499,-4,0,0,-33,0,570004,0
570029,-132,-2036,368,-90,-16,-28,17129,7,1,173,56,35087,-64,39,127,0,0,1,0,1,0,100,0,100,0,0,-1,1,6,1,96,74,4363,-21,2681,0,481,9,-9,0,-13,45,0,22435,3362,1185,299,9826,-4228,272,6509,-4,0,0,-33,0,570020,0
570039,-128,-2032,366,-80,-24,-23,17128,-2,0,175,40,35086,-52,39,127,0,0,1,0,1,0,100,0,100,0,0,-1,2,6,1,98,74,4368,65,2680,0,479,9,-9,0,-13,45,0,22458,3362,1185,302,9826,-4228,272,6519,-4,0,0,-33,0,570036,0
570049,-114,-2040,365,-77,-24,-19,17131,-3,3,232,56,35073,-31,39,127,0,0,1,0,1,0,100,0,100,0,0,-1,3,5,1,101,75,4363,-32,2679,0,478,9,-9,0,-13,45,0,22435,3363,1185,401,9826,-4228,272,6529,-4,0,0,-33,0,570036,0
570059,-139,-2033,356,-86,-18,-22,17128,14,-3,167,40,35070,-34,39,127,0,0,1,0,1,0,100,0,100,0,0,-1,1,5,1,103,75,4365,10,2679,0,476,9,-9,0,-13,45,0,22446,3362,1185,288,9826,-4228,272,6539,-4,0,0,-33,0,570050,0
570069,-126,-2035,360,-74,-28,-15,17128,-5,-4,170,8,35074,-38,39,127,0,0,1,0,1,0,100,0,100,0,0,-1,1,5,1,106,75,4365,32,2678,0,475,9,-9,0,-13,45,0,22446,3362,1185,294,9826,-4228,272,6549,-4,0,0,-33,0,570065,0
570079,-152,-2034,366,-73,-29,-11,17128,9,11,173,72,35079,-46,39,127,0,0,1,0,1,0,100,0,100,0,0,-1,1,5,1,108,76,4363,-21,2678,0,474,9,-9,0,-13,45,0,22435,3362,1185,299,9826,-4228,272,6559,-4,0,0,-33,0,570066,0
570089,-156,-2042,372,-67,-28,-15,17130,3,0,175,32,35086,-38,39,127,0,0,1,1,1,0,100,100,100,0,0,-1,1,6,1,111,76,4363,0,2677,0,473,9,-9,0,-13,45,0,22435,3363,1185,302,9826,-4228,272,6569,-4,0,0,-33,0,570101,0
570099,-150,-2038,384,-71,-23,-15,17128,0,0,174,40,35087,-49,39,127,0,0,1,0,1,0,100,0,100,0,0,-1,1,6,1,1,76,4363,0,2677,0,472,9,-9,0,-13,45,0,22435,3362,1185,301,9826,-4228,272,6579,-4,0,0,-33,0,570101,0
570109,-156,-2037,380,-78,-30,-21,17129,-1,1,168,72,35082,-58,39,127,0,0,1,0,1,0,100,0,100,0,0,-1,1,6,1,4,77,4363,0,2677,0,471,9,-9,0,-13,45,0,22435,3362,1185,290,9826,-4228,272,6589,-4,0,0,-33,0,570133,0
570119,-153,-2039,370,-73,-31,-23,17129,3,-4,165,40,35076,-63,39,127,0,0,1,0,1,0,100,0,100,0,0,-1,1,6,1,6,77,4363,0,2676,0,470,9,-9,0,-13,45,0,22435,3362,1185,285,9826,-4228,272,6599,-4,0,0,-33,0,570150,0
570129,-170,-2034,360,-71,-30,-29,17129,0,-4,166,8,35076,-50,39,127,0,0,1,0,1,0,100,0,100,0,0,-1,1,6,1,9,77,4363,0,2675,0,469,9,-9,0,-13,45,0,22435,3362,1185,287,9826,-4228,272,6609,-4,0,0,-33,0,570150,0
570139,-193,-2036,352,-77,-29,-34,17129,13,1,171,40,35072,-50,39,127,0,0,1,0,1,0,100,0,100,0,0,-1,1,6,1,11,78,4363,0,2674,-1,468,9,-9,0,-13,45,0,22435,3362,1185,295,9826,-4228,272,6619,-4,0,0,-33,0,570150,0
570149,-155,-2026,361,-71,-27,-39,17128,-2,1,179,40,35070,-52,39,127,0,0,1,0,1,0,100,0,100,0,0,-1,1,6,1,14,78,4363,-21,2673,-1,467,9,-9,0,-13,45,0,22435,3362,1185,309,9826,-4228,272,6629,-4,0,0,-33,0,570169,0
570159,-163,-2027,370,-64,-36,-45,17128,0,0,173,40,35073,-60,39,127,0,0,1,0,1,0,100,0,100,0,0,-1,1,6,1,16,78,4363,0,2672,-1,465,9,-9,0,-13,45,0,22435,3362,1185,299,9826,-4228,272,6639,-4,0,0,-33,0,570173,0
570169,-167,-2035,369,-72,-37,-59,17128,-7,0,169,8,35074,-58,39,127,0,0,1,0,1,0,100,0,100,0,0,-1,1,6,1,19,79,4363,-21,2670,-1,464,9,-9,0,-13,45,0,22435,3362,1185,292,9826,-4228,272,6649,-4,0,0,-33,0,570173,0
570179,-183,-2037,366,-74,-39,-63,17128,4,-5,126,16,35074,-46,39,127,0,0,1,0,1,0,100,0,100,0,0,-1,1,6,1,21,79,4363,0,2668,-1,462,9,-9,0,-13,45,0,22435,3362,1185,218,9826,-4228,272,6659,-4,0,0,-33,0,570173,0
570189,-170,-2023,385,-75,-36,-62,17128,10,-1,111,-16,35074,-50,39,127,0,0,1,0,1,0,100,0,100,0,0,-1,1,6,1,24,79,4361,-43,2666,-1,459,9,-9,0,-13,45,0,22423,3362,1185,192,9826,-4228,272,6669,-4,0,0,-33,0,570173,0
570199,-175,-2034,368,-82,-36,-72,17125,1,0,60,24,35088,-52,39,127,0,0,1,0,1,0,100,0,100,0,0,-1,1,6,1,26,80,4361,-10,2664,-2,457,9,-9,0,-13,45,0,22423,3362,1185,103,9826,-4228,272,6679,-4,0,0,-33,0,570217,0
570209,-158,-2040,377,-84,-38,-77,17125,-1,7,19,32,35094,-44,39,127,0,0,1,0,1,0,100,0,100,0,0,-1,2,6,1,29,80,4359,-32,2662,-2,454,9,-9,0,-13,45,0,22412,3362,1185,32,9826,-4228,272,6689,-4,0,0,-33,0,570217,0
570219,-153,-2036,367,-84,-36,-93,17120,-14,-5,-64,-48,35087,-36,39,127,0,0,1,0,1,0,100,0,100,0,0,-1,1,6,1,31,80,4359,21,2659,-2,452,9,-9,0,-13,45,0,22412,3361,1185,0,9826,-4228,272,6699,-4,0,0,-33,0,570217,0
570229,-171,-2029,360,-83,-21,-108,17120,5,0,-38,-48,35074,-35,39,127,0,0,1,0,1,0,100,0,100,0,0,-1,2,6,1,34,81,4354,-32,2656,-3,449,9,-9,0,-13,45,0,22389,3361,1184,0,9826,-4228,272,6709,-4,0,0,-33,0,570217,0
570239,-146,-2049,371,-73,-24,-113,17112,-19,-4,-183,-32,35069,-50,39,127,0,0,1,0,1,0,100,0,100,0,0,-1,1,6,1,36,81,4350,-32,2653,-3,445,9,-9,0,-13,45,0,22366,3359,1184,0,9826,-4228,272,6719,-4,0,0,-33,0,570217,0
570249,-142,-2038,360,-72,-20,-113,17100,-27,-21,-153,-40,35079,-59,39,127,0,0,1,0,1,0,100,0,100,0,0,-1,2,6,1,39,81,4348,-43,2649,-3,441,9,-9,0,-13,45,0,22354,3357,1184,0,9826,-4228,272,6729,-4,0,0,-33,0,570250,0
570259,-141,-2037,372,-75,-23,-112,17082,-49,-15,-86,-8,35079,-49,39,127,0,0,1,0,1,0,100,0,100,0,0,-1,2,6,1,41,82,4348,0,2646,-3,438,9,-9,0,-13,45,0,22354,3353,1184,0,9826,-4228,272,6739,-4,0,0,-33,0,570266,0
570269,-145,-2029,368,-74,-21,-117,17070,-27,-2,-110,-16,35072,-46,39,127,0,0,1,0,1,0,100,0,100,0,0,-1,2,6,1,44,82,4343,-21,2642,-3,434,9,-9,0,-13,45,0,22331,3351,1184,0,9826,-4228,272,6749,-4,0,0,-33,0,570267,0
570279,-137,-2033,373,-73,-20,-124,17059,-22,15,-175,-64,35066,-50,39,127,0,0,1,0,1,0,100,0,100,0,0,-1,1,6,1,46,82,4339,-10,2638,-3,429,9,-9,0,-13,45,0,22308,3349,1184,0,9826,-4228,272,6759,-4,0,0,-33,0,570267,0
570289,-118,-2037,366,-70,-21,-109,17056,-14,13,-269,-104,35081,-59,39,127,0,0,1,0,1,0,100,0,100,0,0,-1,2,6,1,49,83,4337,-21,2635,-3,425,9,-9,0,-13,45,0,22296,3348,1184,0,9826,-4228,272,6769,-4,0,0,-33,0,570267,0
570299,-131,-2032,362,-74,-26,-110,17053,-1,6,-288,-48,35083,-59,39,127,0,0,1,0,1,0,100,0,100,0,0,-1,2,6,1,51,83,4335,-21,2631,-3,421,9,-9,0,-13,45,0,22285,3348,1183,0,9826,-4228,272,6779,-4,0,0,-33,0,570300,0
570309,-126,-2041,366,-64,-24,-95,17050,-12,0,-378,-88,35081,-53,39,127,0,0,1,0,1,0,100,0,100,0,0,-1,1,6,1,54,83,4335,0,2628,-2,418,9,-9,0,-13,45,0,22285,3347,1183,0,9826,-4228,272,6789,-4,0,0,-33,0,570300,0
570319,-123,-2046,371,-66,-23,-100,17042,-14,-10,-361,-112,35070,-70,39,127,0,0,1,0,1,0,100,0,100,0,0,-1,2,6,1,56,84,4333,-10,2626,-3,414,9,-9,0,-13,45,0,22273,3346,1183,0,9826,-4228,272,6799,-4,0,0,-33,0,570318,0
570329,-109,-2041,361,-66,-23,-78,17036,-17,-5,-387,-152,35082,-75,39,127,0,0,1,0,1,0,100,0,100,0,0,-1,2,6,1,59,84,4328,-32,2623,-2,411,9,-9,0,-13,45,0,22250,3344,1183,0,9826,-4228,272,6809,-4,0,0,-33,0,570334,0
570339,-113,-2045,364,-61,-21,-71,17016,-58,-29,-364,-104,35085,-82,39,127,0,0,1,0,1,0,100,0,100,0,0,-1,1,6,1,61,84,4328,0,2621,-2,407,9,-9,0,-13,45,0,22250,3341,1183,0,9826,-4228,272,6819,-4,0,0,-33,0,570334,0
570349,-136,-2041,365,-62,-22,-69,16988,-45,-44,-213,-40,35082,-73,39,127,0,0,1,0,1,0,100,0,100,0,0,-1,1,6,1,64,85,4326,-10,2618,-2,405,9,-9,0,-13,45,0,22239,3335,1183,0,9826,-4228,272,6829,-4,0,0,-33,0,570334,0
570359,-109,-2037,371,-62,-24,-57,16988,-3,49,-325,-96,35073,-58,39,127,0,0,1,0,1,0,100,0,100,0,0,-1,2,6,1,66,85,4324,0,2616,-1,402,9,-9,0,-13,45,0,22227,3335,1183,0,9826,-4228,272,6839,-4,0,0,-33,0,570367,0
570369,-126,-2043,368,-60,-33,-52,16980,-21,24,-328,-80,35080,-64,39,127,0,0,1,0,1,0,100,0,100,0,0,-1,1,6,1,69,85,4322,-21,2615,-1,400,9,-9,0,-13,45,0,22216,3334,1183,0,9826,-4228,272,6849,-4,0,0,-33,0,570367,0
570379,-122,-2036,365,-58,-22,-53,16973,-18,-15,-288,-64,35087,-64,38,127,0,0,1,0,1,0,100,0,100,0,0,-1,1,6,1,71,86,4322,-43,2613,-1,398,9,-9,0,-13,45,0,22216,3332,1183,0,9826,-4228,272,6859,-4,0,0,-33,0,570385,0
570389,-145,-2040,355,-56,-27,-44,16959,-30,-12,-248,-56,35088,-60,39,127,0,0,1,0,1,0,100,0,100,0,0,-1,2,6,1,74,86,4322,-10,2612,-1,396,9,-9,0,-13,45,0,22216,3330,1183,0,9826,-4228,272,6869,-4,0,0,-33,0,570386,0
570399,-132,-2036,362,-59,-22,-52,16942,-36,-16,-43,-24,35082,-55,38,127,0,0,1,1,1,0,100,100,100,0,0,-1,2,6,1,76,86,4322,-32,2610,-1,394,9,-9,0,-13,45,0,22216,3326,1183,0,9826,-4228,272,6879,-4,0,0,-33,0,570386,0
570409,-146,-2034,363,-55,-23,-44,16935,1,15,-79,-32,35088,-58,38,127,0,0,1,0,1,0,100,0,100,0,0,-1,2,6,2,2,87,4322,0,2609,-1,392,9,-9,0,-13,45,0,22216,3325,1183,0,9826,-4228,272,6889,-4,0,0,-33,0,570450,0
570419,-141,-2041,365,-56,-21,-55,16933,6,37,-109,-56,35097,-46,39,127,0,0,1,0,1,0,100,0,100,0,0,-1,2,6,2,4,87,4317,-43,2607,-1,390,9,-9,0,-13,45,0,22193,3325,1183,0,9826,-4228,272,6899,-4,0,0,-33,0,570450,0
570429,-136,-2037,366,-50,-21,-55,16925,-8,2,-100,-48,35094,-36,39,127,0,0,1,0,1,0,100,0,100,0,0,-1,2,6,2,7,87,4319,-21,2606,-1,388,9,-9,0,-13,45,0,22204,3323,1183,0,9826,-4228,272,6909,-4,0,0,-33,0,570450,0
570439,-134,-2041,365,-60,-18,-53,16926,0,5,-138,-24,35084,-29,39,127,0,0,1,0,1,0,100,0,100,0,0,-1,3,6,2,9,88,4317,-10,2604,-1,387,9,-9,0,-13,45,0,22193,3323,1183,0,9826,-4228,272,6919,-4,0,0,-33,0,570450,0
570449,-104,-2031,376,-56,-30,-51,16923,-14,8,-173,-32,35072,-47,39,127,0,0,1,0,1,0,100,0,100,0,0,-1,2,6,1,12,88,4315,10,2603,-1,385,9,-9,0,-13,45,0,22181,3323,1183,0,9826,-4228,272,6929,-4,0,0,-33,0,570567,0
570459,-120,-2034,379,-59,-28,-49,16918,-14,-8,-174,-88,35079,-53,39,127,0,0,1,0,1,0,100,0,100,0,0,-1,1,6,1,14,88,4317,21,2601,-1,383,9,-9,0,-13,45,0,22193,3322,1183,0,9826,-4228,272,6939,-4,0,0,-33,0,570567,0
570469,-108,-2034,369,-55,-28,-43,16916,-3,2,-188,-32,35086,-51,39,127,0,0,1,0,1,0,100,0,100,0,0,-1,3,6,1,17,89,4313,0,2600,-1,382,9,-9,0,-13,45,0,22170,3321,1182,0,9826,-4228,272,6949,-4,0,0,-33,0,570567,0
570479,-125,-2034,360,-55,-19,-46,16908,-17,-6,-191,24,35086,-44,39,127,0,0,1,0,1,0,100,0,100,0,0,-1,3,6,1,19,89,4313,0,2598,-1,380,9,-9,0,-13,45,0,22170,3320,1182,0,9826,-4228,272,6959,-4,0,0,-33,0,570567,0
570489,-120,-2044,365,-54,-20,-46,16901,-8,-3,-158,-32,35082,-31,38,127,0,0,1,0,1,0,100,0,100,0,0,-1,1,6,1,22,89,4313,0,2597,-1,378,9,-9,0,-13,45,0,22170,3318,1182,0,9826,-4228,272,6969,-4,0,0,-33,0,570584,0
570499,-123,-2040,362,-52,-24,-42,16892,-25,6,-91,-8,35088,-37,38,127,0,0,1,0,1,0,100,0,100,0,0,-1,1,6,1,24,90,4313,0,2596,-1,377,9,-9,0,-13,45,0,22170,3317,1182,0,9826,-4228,272,6979,-4,0,0,-33,0,570584,0
570509,-132,-2041,369,-51,-29,-28,16882,-18,-8,-34,16,35087,-42,39,127,0,0,1,0,1,0,100,0,100,0,0,-1,1,6,1,27,90,4313,10,2595,0,375,9,-9,0,-13,45,0,22170,3315,1182,0,9826,-4228,272,6989,-4,0,0,-33,0,570584,0
570519,-124,-2036,372,-49,-21,-19,16881,0,17,-29,16,35079,-37,39,127,0,0,1,0,1,0,100,0,100,0,0,-1,1,6,1,29,90,4308,-32,2594,0,374,9,-9,0,-13,45,0,22147,3315,1182,0,9826,-4228,272,6999,-4,0,0,-33,0,570584,0
570529,-136,-2047,370,-52,-25,-24,16876,-10,7,-26,16,35075,-29,39,127,0,0,1,0,1,0,100,0,100,0,0,-1,3,6,1,32,91,4308,-43,2593,0,372,9,-9,0,-13,45,0,22147,3314,1182,0,9826,-4228,272,7009,-4,0,0,-33,0,570584,0
570539,-100,-2047,380,-50,-29,-15,16875,-24,-5,-66,-8,35076,-38,39,127,0,0,1,0,1,0,100,0,100,0,0,-1,2,6,1,34,91,4311,21,2593,0,371,9,-9,0,-13,45,0,22158,3313,1182,0,9826,-4228,272,7019,-4,0,0,-33,0,570584,0
570549,-118,-2037,358,-50,-28,-14,16875,1,7,-48,-8,35082,-34,38,127,0,0,1,0,1,0,100,0,100,0,0,-1,2,6,1,37,91,4313,54,2592,0,371,9,-9,0,-13,45,0,22170,3313,1182,0,9826,-4228,272,7029,-4,0,0,-33,0,570600,0
570559,-120,-2044,363,-45,-24,-14,16878,9,14,8,-8,35087,-29,39,127,0,0,1,0,1,0,100,0,100,0,0,-1,2,6,1,39,91,4311,-10,2592,0,370,9,-9,0,-13,45,0,22158,3314,1182,13,9826,-4228,272,7039,-4,0,0,-33,0,570600,0
570569,-108,-2040,361,-48,-24,-18,16875,-3,-1,-24,-8,35081,-18,39,127,0,0,1,0,1,0,100,0,100,0,0,-1,1,6,1,42,92,4311,21,2592,0,370,9,-9,0,-13,45,0,22158,3313,1182,0,9826,-4228,272,7049,-4,0,0,-33,0,570600,0
570579,-114,-2039,370,-42,-20,-12,16874,-3,-6,-70,40,35075,-22,39,127,0,0,1,0,1,0,100,0,100,0,0,-1,2,6,1,44,92,4313,65,2591,0,370,9,-9,0,-13,45,0,22170,3313,1182,0,9826,-4228,272,7059,-4,0,0,-33,0,570600,0
570589,-117,-2050,367,-40,-24,-14,16877,9,7,23,16,35079,-34,39,127,0,0,1,0,1,0,100,0,100,0,0,-1,2,6,1,47,92,4313,-10,2591,0,369,9,-9,0,-13,45,0,22170,3314,1182,39,9826,-4228,272,7069,-4,0,0,-33,0,570601,0
570599,-143,-2047,375,-41,-24,-16,16875,6,-5,15,32,35097,-45,39,127,0,0,1,0,1,0,100,0,100,0,0,-1,2,6,1,49,93,4311,-21,2591,0,369,9,-9,0,-13,45,0,22158,3313,1182,25,9826,-4228,272,7079,-4,0,0,-33,0,570601,0
570609,-128,-2032,368,-44,-26,-21,16874,-12,-10,-25,32,35103,-35,39,127,0,0,1,0,1,0,100,0,100,0,0,-1,1,6,1,52,93,4311,0,2590,0,368,9,-9,0,-13,45,0,22158,3313,1182,0,9826,-4228,272,7089,-4,0,0,-33,0,570616,0
570619,-111,-2042,365,-46,-23,-18,16877,0,5,-21,-8,35113,-28,39,127,0,0,1,0,1,0,100,0,100,0,0,-1,1,6,1,54,93,4313,0,2590,0,368,9,-9,0,-13,45,0,22170,3314,1182,0,9826,-4228,272,7099,-4,0,0,-33,0,570617,0
570629,-120,-2034,367,-44,-27,-8,16876,15,1,26,-16,35110,-11,38,127,0,0,1,0,1,0,100,0,100,0,0,-1,3,6,1,57,94,4311,-43,2589,0,367,9,-9,0,-13,45,0,22158,3314,1182,44,9826,-4228,272,7109,-4,0,0,-33,0,570617,0
570639,-160,-2038,359,-42,-28,-21,16874,0,-5,-21,0,35115,-30,38,127,0,0,1,0,1,0,100,0,100,0,0,-1,2,6,1,59,94,4311,0,2589,0,367,9,-9,0,-13,45,0,22158,3313,1182,0,9826,-4228,272,7119,-4,0,0,-33,0,570650,0
570649,-133,-2030,370,-37,-27,-19,16875,-1,5,-29,8,35103,-14,39,127,0,0,1,0,1,0,100,0,100,0,0,-1,2,6,1,62,94,4311,0,2588,0,366,9,-9,0,-13,45,0,22158,3313,1182,0,9826,-4228,272,7129,-4,0,0,-33,0,570652,0
570659,-143,-2029,371,-36,-27,-12,16877,18,16,-2,40,35093,-20,39,127,0,0,1,0,1,0,100,0,100,0,0,-1,1,6,1,64,95,4311,-21,2588,0,366,9,-9,0,-13,45,0,22158,3314,1182,0,9826,-4228,272,7139,-4,0,0,-33,0,570652,0
570669,-106,-2039,366,-34,-18,-22,16875,8,1,14,-8,35073,-13,39,127,0,0,1,0,1,0,100,0,100,0,0,-1,2,6,1,67,95,4315,32,2587,0,365,9,-9,0,-13,45,0,22181,3313,1183,24,9826,-4228,272,7149,-4,0,0,-33,0,570652,0
570679,-147,-2035,367,-31,-21,-8,16877,5,3,76,16,35085,-15,38,127,0,0,1,0,1,0,100,0,100,0,0,-1,1,6,1,69,95,4313,0,2587,0,365,9,-9,0,-13,45,0,22170,3314,1182,131,9826,-4228,272,7159,-4,0,0,-33,0,570717,0
570689,-112,-2042,376,-31,-18,-11,16874,-12,-3,31,24,35089,1,39,127,0,0,1,0,1,0,100,0,100,0,0,-1,2,6,1,72,96,4313,10,2587,0,364,9,-9,0,-13,45,0,22170,3313,1182,53,9826,-4228,272,7169,-4,0,0,-33,0,570717,0
570699,-126,-2040,376,-28,-20,-17,16874,-11,-7,21,24,35084,10,39,127,0,0,1,0,1,0,100,0,100,0,0,-1,2,6,1,74,96,4313,21,2586,0,364,9,-9,0,-13,45,0,22170,3313,1182,36,9826,-4228,272,7179,-4,0,0,-33,0,570717,0
570709,-128,-2046,371,-33,-27,-13,16875,0,5,75,8,35065,0,39,127,0,0,1,0,1,0,100,0,100,0,0,-1,1,6,1,77,96,4313,-10,2586,0,363,9,-9,0,-13,45,0,22170,3313,1182,129,9826,-4228,272,7189,-4,0,0,-33,0,570717,0
570719,-142,-2046,369,-24,-23,-14,16875,-7,-2,51,16,35060,-13,39,127,0,0,1,0,1,0,100,0,100,0,0,-1,1,6,1,79,96,4313,0,2586,0,363,9,-9,0,-13,45,0,22170,3313,1182,88,9826,-4228,272,7199,-4,0,0,-33,0,570729,0
570729,-129,-2033,381,-36,-27,-15,16876,0,-8,17,24,35065,-20,39,127,0,0,1,0,1,0,100,0,100,0,0,-1,1,6,1,82,97,4313,10,2585,0,363,9,-9,0,-13,45,0,22170,3314,1182,29,9826,-4228,272,7209,-4,0,0,-33,0,570730,0
570739,-118,-2034,381,-37,-19,-14,16878,16,6,62,16,35063,-12,39,127,0,0,1,1,1,0,100,100,100,0,0,-1,1,6,1,84,97,4313,-10,2585,0,362,9,-9,0,-13,45,0,22170,3314,1182,107,9826,-4228,272,7219,-4,0,0,-33,0,570733,0
570749,-126,-2039,385,-34,-27,-18,16877,1,-1,95,16,35068,-5,39,127,0,0,1,0,1,0,100,0,100,0,0,-1,2,6,2,2,98,4315,10,2584,0,362,9,-9,0,-13,45,0,22181,3314,1183,164,9826,-4228,272,7229,-4,0,0,-33,0,570734,0
570759,-135,-2027,388,-46,-32,-10,16878,4,-5,97,48,35077,-5,39,127,0,0,1,0,1,0,100,0,100,0,0,-1,1,6,2,4,98,4313,0,2584,0,361,9,-9,0,-13,45,0,22170,3314,1182,167,9826,-4228,272,7239,-4,0,0,-33,0,570767,0
570769,-144,-2047,379,-38,-27,-22,16876,4,-1,39,16,35081,5,39,127,0,0,1,0,1,0,100,0,100,0,0,-1,1,6,2,7,98,4313,0,2583,0,361,9,-9,0,-13,45,0,22170,3314,1182,67,9826,-4228,272,7249,-4,0,0,-33,0,570773,0
570779,-138,-2044,382,-38,-33,-23,16876,-3,-4,51,48,35075,-9,39,127,0,0,1,0,1,0,100,0,100,0,0,-1,2,6,1,9,99,4315,21,2583,0,360,9,-9,0,-13,45,0,22181,3314,1183,88,9826,-4228,272,7259,-4,0,0,-33,0,570774,0
570789,-133,-2045,382,-41,-31,-23,16877,-3,5,73,48,35069,-1,38,127,0,0,1,0,1,0,100,0,100,0,0,-1,2,6,1,12,99,4313,0,2582,0,360,9,-9,0,-13,45,0,22170,3314,1182,126,9826,-4228,272,7269,-4,0,0,-33,0,570784,0
570799,-108,-2036,380,-42,-23,-19,16877,-3,-5,35,16,35068,-17,38,127,0,0,1,0,1,0,100,0,100,0,0,-1,1,6,1,14,99,4311,-32,2581,0,359,9,-9,0,-13,45,0,22158,3314,1182,60,9826,-4228,272,7279,-4,0,0,-33,0,570823,0
570809,-142,-2044,367,-42,-30,-23,16875,-1,0,19,-16,35077,-29,39,127,0,0,1,0,1,0,100,0,100,0,0,-1,2,6,1,17,100,4311,-21,2580,0,358,9,-9,0,-13,45,0,22158,3313,1182,32,9826,-4228,272,7289,-4,0,0,-33,0,570824,0
570819,-120,-2041,362,-46,-37,-20,16876,5,0,33,16,35075,-23,39,127,0,0,1,0,1,0,100,0,100,0,0,-1,1,6,1,19,100,4313,0,2580,0,357,9,-9,0,-13,45,0,22170,3314,1182,56,9826,-4228,272,7299,-4,0,0,-33,0,570824,0
570829,-118,-2034,380,-40,-30,-14,16876,-4,3,47,16,35073,-13,39,127,0,0,1,0,1,0,100,0,100,0,0,-1,0,6,1,22,100,4315,21,2579,0,356,9,-9,0,-13,45,0,22181,3314,1183,81,9826,-4228,272,7309,-4,0,0,-33,0,570830,0
570839,-193,-2075,392,-32,-42,-10,16876,-8,0,67,16,35060,-11,39,127,0,0,1,0,1,0,100,0,100,0,0,-1,1,6,0,24,101,4313,0,2579,0,356,9,-9,0,-13,45,0,22170,3314,1182,115,9826,-4228,272,7319,-4,0,0,-33,0,570832,0
570849,-105,-2045,387,-39,-10,-6,16876,0,-3,45,16,35064,-18,39,127,0,0,1,0,1,0,100,0,100,0,0,-1,0,6,0,27,101,4313,0,2579,0,356,9,-9,0,-13,45,0,22170,3314,1182,77,9826,-4228,272,7329,-4,0,0,-33,0,570901,0
570859,-126,-2035,400,-45,-23,0,16875,-8,-3,46,16,35068,-17,39,127,0,0,1,0,1,0,100,0,100,0,0,-1,1,6,0,29,101,4313,10,2579,0,355,9,-9,0,-13,45,0,22170,3313,1182,79,9826,-4228,272,7339,-4,0,0,-33,0,570918,0
570869,-118,-2044,378,-46,-26,-4,16875,-7,5,61,16,35067,-9,39,127,0,0,1,0,1,0,100,0,100,0,0,-1,1,6,0,32,102,4313,0,2579,0,355,9,-9,0,-13,45,0,22170,3313,1182,105,9826,-4228,272,7349,-4,0,0,-33,0,570920,0
570879,-140,-2034,379,-44,-16,-2,16875,0,2,41,16,35061,2,39,127,0,0,1,0,1,0,100,0,100,0,0,-1,1,6,0,34,102,4317,54,2578,0,356,9,-9,0,-13,45,0,22193,3313,1183,70,9826,-4228,272,7359,-4,0,0,-33,0,570920,0
570889,-97,-2036,385,-44,-32,-6,16878,1,4,105,16,35055,-15,39,127,0,0,1,0,1,0,100,0,100,0,0,-1,3,6,0,37,102,4313,0,2578,0,356,9,-9,0,-13,45,0,22170,3314,1182,181,9826,-4228,272,7369,-4,0,0,-33,0,570920,0
570899,-136,-2032,385,-53,-29,-10,16877,10,2,80,40,35057,-7,39,127,0,0,1,0,1,0,100,0,100,0,0,-1,2,6,0,39,103,4315,21,2578,0,356,9,-9,0,-13,45,0,22181,3314,1183,138,9826,-4228,272,7379,-4,0,0,-33,0,570920,0
570909,-131,-2046,379,-50,-35,-23,16876,-19,2,102,8,35059,-11,39,127,0,0,1,0,1,0,100,0,100,0,0,-1,2,6,0,42,103,4311,-32,2577,0,355,9,-9,0,-13,45,0,22158,3314,1182,176,9826,-4228,272,7389,-4,0,0,-33,0,570920,0
570919,-130,-2045,379,-50,-25,-25,16876,10,-5,29,16,35058,-16,38,127,0,0,1,0,1,0,100,0,100,0,0,-1,1,6,0,44,104,4313,0,2577,0,355,9,-9,0,-13,45,0,22170,3314,1182,50,9826,-4228,272,7399,-4,0,0,-33,0,570920,0
570929,-158,-2035,382,-48,-27,-25,16878,5,-1,85,16,35058,-27,38,127,0,0,1,0,1,0,100,0,100,0,0,-1,1,6,0,47,104,4313,-43,2576,0,355,9,-9,0,-13,45,0,22170,3314,1182,146,9826,-4228,272,7409,-4,0,0,-33,0,570920,0
570939,-159,-2038,377,-50,-29,-29,16876,4,-3,52,16,35052,-27,39,127,0,0,1,0,1,0,100,0,100,0,0,-1,1,6,0,49,104,4313,0,2575,0,354,9,-9,0,-13,45,0,22170,3314,1182,89,9826,-4228,272,7419,-4,0,0,-33,0,570934,0
570949,-126,-2033,388,-53,-26,-35,16876,-2,1,25,16,35060,-23,39,127,0,0,1,0,1,0,100,0,100,0,0,-1,1,6,0,52,105,4313,21,2574,-1,354,9,-9,0,-13,45,0,22170,3314,1182,43,9826,-4228,272,7429,-4,0,0,-33,0,570936,0
570959,-121,-2037,385,-57,-29,-36,16877,5,3,39,16,35077,-1,39,127,0,0,1,0,1,0,100,0,100,0,0,-1,1,6,0,54,105,4315,21,2573,-1,353,9,-9,0,-13,45,0,22181,3314,1183,67,9826,-4228,272,7439,-4,0,0,-33,0,570971,0
570969,-124,-2034,391,-57,-37,-30,16876,0,4,71,16,35085,-2,38,127,0,0,1,0,1,0,100,0,100,0,0,-1,2,6,0,57,105,4313,0,2572,0,352,9,-9,0,-13,45,0,22170,3314,1182,122,9826,-4228,272,7449,-4,0,0,-33,0,570985,0
570979,-130,-2033,387,-64,-32,-35,16878,11,2,44,24,35079,-19,38,127,0,0,1,0,1,0,100,0,100,0,0,-1,1,6,0,59,106,4311,-32,2571,-1,351,9,-9,0,-13,45,0,22158,3314,1182,75,9826,-4228,272,7459,-4,0,0,-33,0,570985,0
570989,-137,-2039,384,-63,-32,-41,16877,3,-5,34,16,35062,-23,39,127,0,0,1,0,1,0,100,0,100,0,0,-1,2,6,0,62,106,4311,-21,2570,-1,350,9,-9,0,-13,45,0,22158,3314,1182,58,9826,-4228,272,7469,-4,0,0,-33,0,570985,0
570999,-121,-2034,382,-57,-34,-42,16875,-10,1,19,16,35048,-17,39,127,0,0,1,0,1,0,100,0,100,0,0,-1,1,6,0,64,106,4313,0,2569,-1,349,9,-9,0,-13,45,0,22170,3313,1182,32,9826,-4228,272,7479,-4,0,0,-33,0,570985,0
571009,-128,-2037,377,-56,-37,-43,16874,-11,5,-5,0,35053,-11,38,127,0,0,1,0,1,0,100,0,100,0,0,-1,1,6,0,67,107,4311,10,2568,-1,348,9,-9,0,-13,45,0,22158,3313,1182,0,9826,-4228,272,7489,-4,0,0,-33,0,571000,0
571019,-129,-2038,384,-55,-29,-45,16874,-5,-2,-34,-40,35060,-23,38,127,0,0,1,0,1,0,100,0,100,0,0,-1,3,6,0,69,107,4308,0,2566,-1,347,9,-9,0,-13,45,0,22147,3313,1182,0,9826,-4228,272,7499,-4,0,0,-33,0,571001,0
571029,-135,-2054,390,-60,-28,-69,16874,3,1,-63,40,35073,-23,39,127,0,0,1,0,1,0,100,0,100,0,0,-1,3,6,0,72,108,4311,10,2564,-2,346,9,-9,0,-13,45,0,22158,3313,1182,0,9826,-4228,272,7509,-4,0,0,-33,0,571039,0
571039,-180,-2037,392,-54,-8,-97,16874,-11,-1,-70,-24,35072,-11,39,127,0,0,1,0,1,0,100,0,100,0,0,-1,2,6,0,74,108,4306,-54,2562,-2,344,9,-9,0,-13,45,0,22135,3313,1182,0,9826,-4228,272,7519,-4,0,0,-33,0,571039,0
571049,-149,-2038,390,-73,-13,-101,16869,5,-13,-132,-72,35061,8,39,127,0,0,1,0,1,0,100,0,100,0,0,-1,2,6,1,1,108,4306,-21,2559,-3,343,9,-9,0,-13,45,0,22135,3312,1182,0,9826,-4228,272,7529,-4,0,0,-33,0,571068,0
571059,-134,-2043,395,-77,-29,-104,16866,-9,-1,-176,-32,35057,12,39,127,0,0,1,0,1,0,100,0,100,0,0,-1,2,6,1,3,109,4302,-21,2556,-3,340,9,-9,0,-13,45,0,22112,3312,1182,0,9826,-4228,272,7539,-4,0,0,-33,0,571068,0
571069,-169,-2040,378,-79,-27,-126,16858,-30,-5,-310,-120,35054,9,39,127,0,0,1,0,1,0,100,0,100,0,0,-1,1,6,1,6,109,4300,0,2552,-3,337,9,-9,0,-13,45,0,22100,3310,1182,0,9826,-4228,272,7549,-4,0,0,-33,0,571068,0
571079,-189,-2047,373,-72,-12,-154,16849,-18,-20,-257,-104,35051,4,39,127,0,0,1,0,1,0,100,0,100,0,0,-1,1,6,1,8,109,4297,-43,2548,-4,334,9,-9,0,-13,45,0,22089,3308,1182,0,9826,-4228,272,7559,-4,0,0,-33,0,571078,0
571089,-154,-2033,388,-78,-16,-175,16841,-26,-3,-320,-128,35051,0,39,127,0,0,1,0,1,0,100,0,100,0,0,-1,2,6,1,11,110,4291,-43,2543,-5,331,9,-9,0,-13,45,0,22054,3307,1181,0,9826,-4228,272,7569,-4,0,0,-33,0,571084,0
571099,-168,-2032,397,-85,-22,-196,16815,-77,-30,-314,-168,35057,-8,38,127,0,0,1,0,1,0,100,0,100,0,0,-1,3,6,1,13,110,4284,-54,2537,-5,326,9,-9,0,-13,45,0,22020,3302,1181,0,9826,-4228,272,7579,-4,0,0,-33,0,571089,0
571109,-203,-2046,407,-89,-11,-236,16778,-72,-60,-293,-152,35062,-33,38,127,0,0,1,0,1,0,100,0,100,0,0,-1,1,6,1,16,111,4280,-54,2530,-7,321,9,-9,0,-13,45,0,21997,3295,1181,0,9826,-4228,272,7589,-4,0,0,-33,0,571101,0
571119,-156,-2042,415,-108,-18,-265,16738,-97,-19,-209,-64,35067,-34,39,127,0,0,1,0,1,0,100,0,100,0,0,-1,4,6,1,18,111,4273,-76,2523,-8,315,9,-9,0,-13,45,0,21962,3287,1181,0,9826,-4228,272,7599,-4,0,0,-33,0,571135,0
571129,-200,-2033,415,-126,-28,-312,16703,-73,6,-261,-104,35063,-31,39,127,0,0,1,0,1,0,100,0,100,0,0,-1,3,6,1,21,112,4267,-65,2514,-9,309,9,-9,0,-13,45,0,21928,3280,1180,0,9826,-4228,272,7609,-4,0,0,-33,0,571135,0
571139,-200,-2045,420,-130,-30,-374,16655,-108,-11,-187,-80,35059,-12,39,127,0,0,1,0,1,0,100,0,100,0,0,-1,2,6,1,23,112,4258,-87,2504,-11,301,9,-9,0,-13,45,0,21882,3271,1180,0,9826,-4228,272,7619,-4,0,0,-33,0,571135,0
571149,-206,-2039,408,-149,-24,-443,16613,-101,-12,-303,-112,35061,-14,39,127,0,0,1,0,1,0,100,0,100,0,0,-1,2,6,1,26,112,4245,-109,2491,-13,292,9,-9,0,-13,45,0,21812,3263,1179,0,9826,-4228,272,7629,-4,0,0,-33,0,571135,0
571159,-268,-2032,374,-146,-13,-529,16571,-85,4,-342,-208,35061,1,39,127,0,0,1,0,1,0,100,0,100,0,0,-1,2,6,1,28,113,4231,-153,2476,-16,281,9,-9,0,-13,45,0,21743,3255,1179,0,9826,-4228,272,7639,-4,0,0,-33,0,571150,0
571169,-203,-2039,363,-147,-20,-621,16506,-156,-35,-352,-232,35076,12,39,127,0,0,1,0,1,0,100,0,100,0,0,-1,2,6,1,31,113,4214,-164,2459,-18,267,9,-9,0,-13,45,0,21651,3242,1178,0,9826,-4228,272,7649,-4,0,0,-33,0,571174,0
571179,-218,-2034,355,-144,-27,-684,16419,-201,-87,-331,-248,35086,3,39,127,0,0,1,0,1,0,100,0,100,0,0,-1,2,6,1,33,114,4194,-175,2439,-20,251,9,-9,0,-13,45,0,21547,3226,1177,0,9826,-4228,272,7659,-4,0,0,-33,0,571185,0
571189,-235,-2033,362,-156,-9,-796,16314,-246,-70,-329,-272,35099,1,39,127,0,0,1,0,1,0,100,0,100,0,0,-1,1,6,1,36,114,4170,-230,2417,-24,232,9,-9,0,-13,45,0,21421,3205,1176,0,9826,-4228,272,7669,-4,0,0,-33,0,571185,0
571199,-231,-2033,367,-138,-1,-876,16205,-233,-40,-313,-296,35096,11,39,127,0,0,1,0,1,0,100,0,100,0,0,-1,1,6,1,38,115,4148,-241,2391,-26,211,9,-9,0,-13,45,0,21305,3184,1175,0,9826,-4228,272,7679,-4,0,0,-33,0,571203,0
571209,-167,-2035,364,-148,4,-972,16101,-258,-22,-315,-376,35093,6,39,127,0,0,1,0,1,0,100,0,100,0,0,-1,4,6,1,41,115,4117,-318,2363,-29,187,9,-9,0,-13,45,0,21143,3163,1174,0,9826,-4228,272,7689,-4,0,0,-33,0,571225,0
571219,-157,-2015,342,-157,0,-1018,15978,-277,-24,-358,-400,35087,-1,39,127,0,0,1,0,1,0,100,0,100,0,0,-1,3,6,1,43,115,4086,-296,2333,-31,160,9,-9,0,-13,45,0,20981,3139,1173,0,9826,-4228,272,7699,-4,0,0,-33,0,571256,0
571229,-87,-2044,359,-143,15,-1066,15834,-326,-61,-320,-432,35084,-9,39,127,0,0,1,0,1,0,100,0,100,0,0,-1,2,6,1,46,116,4053,-373,2301,-32,130,9,-9,0,-13,45,0,20807,3111,1172,0,9826,-4228,272,7709,-4,0,0,-33,0,571256,0
571239,-5,-2024,352,-132,12,-1049,15683,-344,-53,-307,-480,35082,13,39,127,0,0,1,0,1,0,100,0,100,0,0,-1,2,6,1,48,116,4020,-340,2269,-32,98,9,-9,0,-13,45,0,20634,3081,1170,0,9826,-4228,272,7719,-4,0,0,-33,0,571256,0
571249,68,-2034,364,-134,4,-1010,15528,-342,-20,-336,-464,35085,12,39,127,0,0,1,0,1,0,100,0,100,0,0,-1,1,6,1,51,116,3990,-318,2237,-30,64,9,-9,0,-13,45,0,20471,3051,1169,0,9826,-4228,272,7729,-4,0,0,-33,0,571256,0
571259,104,-2030,337,-123,7,-979,15365,-354,-22,-297,-504,35078,-2,39,127,0,0,1,0,1,0,100,0,100,0,0,-1,2,6,1,53,116,3959,-351,2206,-29,31,9,-9,0,-13,45,0,20309,3020,1168,0,9826,-4228,272,7739,-4,0,0,-33,0,571268,0
571269,151,-2028,276,-84,4,-894,15203,-341,-11,-275,-464,35073,-9,39,127,0,0,1,0,1,0,100,0,100,0,0,-1,2,6,1,56,117,3933,-285,2178,-27,-1,9,-9,0,-13,45,0,20169,2989,1168,0,9826,-4228,272,7749,-4,0,0,-33,0,571268,0
571279,203,-2030,262,-52,-8,-804,15050,-340,22,-300,-472,35074,-9,39,127,0,0,1,0,1,0,100,0,100,0,0,-1,2,6,1,58,117,3906,-274,2152,-24,-31,9,-9,0,-13,45,0,20029,2961,1167,0,9826,-4228,272,7759,-4,0,0,-33,0,571271,0
571289,212,-2026,265,-4,-6,-701,14896,-335,13,-259,-408,35084,8,39,127,0,0,1,0,1,0,100,0,100,0,0,-1,2,6,1,61,117,3882,-252,2129,-21,-59,9,-9,0,-13,45,0,19901,2932,1166,0,9826,-4228,272,7769,-4,0,0,-33,0,571318,0
571299,188,-2024,263,19,-15,-631,14753,-313,22,-283,-360,35098,-8,39,127,0,0,1,0,1,0,100,0,100,0,0,-1,1,6,1,63,117,3862,-164,2109,-19,-84,9,-9,0,-13,45,0,19796,2904,1166,0,9826,-4228,272,7779,-4,0,0,-33,0,571318,0
571309,143,-2022,265,62,-11,-548,14625,-266,52,-287,-336,35097,-20,39,127,0,0,1,0,1,0,100,0,100,0,0,-1,1,6,1,66,0,3840,-175,2091,-16,-106,9,-9,0,-13,45,0,19679,2879,1165,0,9826,-4228,272,7789,-4,0,0,-33,0,571318,0
571319,143,-2032,279,86,-5,-504,14500,-278,34,-220,-248,35087,-26,39,127,0,0,1,0,1,0,100,0,100,0,0,-1,2,6,1,68,0,3825,-153,2075,-15,-125,9,-9,0,-13,45,0,19598,2855,1165,0,9826,-4228,272,7799,-4,0,0,-33,0,571318,0
571329,114,-2041,282,121,-5,-432,14400,-209,49,-254,-224,35080,6,39,127,0,0,1,0,1,0,100,0,100,0,0,-1,3,6,1,71,0,3807,-142,2060,-13,-142,9,-9,0,-13,45,0,19504,2836,1164,0,9826,-4228,272,7809,-4,0,0,-33,0,571318,0
571339,124,-2033,312,144,-6,-421,14305,-200,57,-249,-160,35083,4,39,127,0,0,1,0,1,0,100,0,100,0,0,-1,1,6,1,73,0,3794,-131,2047,-12,-157,9,-9,0,-13,45,0,19434,2817,1164,0,9826,-4228,272,7819,-4,0,0,-33,0,571335,0
571349,121,-2043,347,164,-7,-357,14231,-139,56,-292,-152,35088,13,39,127,0,0,1,1,1,0,100,100,100,0,0,-1,1,6,1,76,0,3781,-109,2036,-10,-170,9,-9,0,-13,45,0,19364,2803,1163,0,9826,-4228,272,7829,-4,0,0,-33,0,571336,0
571359,115,-2042,346,172,-28,-340,14159,-161,43,-248,-160,35093,4,39,127,0,0,1,0,1,0,100,0,100,0,0,-1,1,6,1,1,0,3768,-142,2025,-10,-182,9,-9,0,-13,45,0,19294,2789,1163,0,9826,-4228,272,7839,-4,0,0,-33,0,571373,0
571369,49,-2040,367,190,-28,-301,14086,-150,-3,-249,-136,35098,3,39,127,0,0,1,0,1,0,100,0,100,0,0,-1,1,6,1,4,0,3759,-98,2015,-9,-192,9,-9,0,-13,45,0,19247,2775,1163,0,9826,-4228,272,7849,-4,0,0,-33,0,571373,0
571379,42,-2073,378,230,-15,-299,14033,-107,44,-315,-208,35093,-17,39,127,0,0,1,0,1,0,100,0,100,0,0,-1,3,6,1,6,0,3748,-109,2006,-9,-200,9,-9,0,-13,45,0,19188,2765,1162,0,9826,-4228,272,7859,-4,0,0,-33,0,571384,0
571389,29,-2017,335,247,-14,-302,13977,-115,28,-286,-136,35087,-22,39,127,0,0,1,0,1,0,100,0,100,0,0,-1,2,6,1,9,0,3737,-98,1997,-9,-209,9,-9,0,-13,45,0,19128,2755,1162,0,9826,-4228,272,7869,-4,0,0,-33,0,571386,0
571399,72,-2034,388,238,-9,-303,13923,-93,3,-269,-128,35080,-21,39,127,0,0,1,0,1,0,100,0,100,0,0,-1,1,6,1,11,0,3728,-98,1988,-9,-218,9,-9,0,-13,45,0,19081,2745,1162,0,9826,-4228,272,7879,-4,0,0,-33,0,571386,0
571409,29,-2045,413,252,-26,-325,13877,-94,37,-327,-120,35084,-33,39,127,0,0,1,0,1,0,100,0,100,0,0,-1,2,6,1,14,0,3719,-76,1979,-9,-226,9,-9,0,-13,45,0,19034,2736,1162,0,9826,-4228,272,7889,-4,0,0,-33,0,571418,0
571419,27,-2028,393,251,-6,-333,13839,-94,31,-388,-216,35090,-28,39,127,0,0,1,0,1,0,100,0,100,0,0,-1,2,6,1,16,0,3708,-120,1968,-10,-234,9,-9,0,-13,45,0,18975,2729,1161,0,9826,-4228,272,7899,-4,0,0,-33,0,571418,0
571429,14,-2033,393,255,-1,-351,13778,-144,-34,-315,-168,35097,-30,39,127,0,0,1,0,1,0,100,0,100,0,0,-1,2,6,1,19,0,3697,-131,1958,-10,-244,9,-9,0,-13,45,0,18915,2718,1161,0,9826,-4228,272,7909,-4,0,0,-33,0,571418,0
571439,64,-2027,361,270,6,-373,13714,-131,-43,-280,-200,35091,-12,39,127,0,0,1,0,1,0,100,0,100,0,0,-1,1,6,1,21,0,3684,-131,1947,-11,-254,9,-9,0,-13,45,0,18844,2706,1161,0,9826,-4228,272,7919,-4,0,0,-33,0,571418,0
571449,50,-2024,378,278,-14,-379,13657,-117,8,-328,-192,35093,-11,39,127,0,0,1,0,1,0,100,0,100,0,0,-1,1,6,1,24,1,3676,-76,1936,-11,-264,9,-9,0,-13,45,0,18797,2696,1161,0,9826,-4228,272,7929,-4,0,0,-33,0,571461,0
571459,52,-2026,360,295,-1,-397,13587,-156,-12,-286,-208,35101,-4,39,127,0,0,1,0,1,0,100,0,100,0,0,-1,2,6,0,26,1,3658,-164,1924,-12,-274,9,-9,0,-13,45,0,18703,2683,1160,0,9826,-4228,272,7939,-4,0,0,-33,0,571462,0
571469,57,-2017,366,313,1,-415,13516,-155,-25,-311,-208,35105,-25,39,127,0,0,1,0,1,0,100,0,100,0,0,-1,1,6,0,29,1,3647,-120,1911,-12,-286,9,-9,0,-13,45,0,18643,2670,1160,0,9826,-4228,272,7949,-4,0,0,-33,0,571462,0
571479,76,-2024,412,315,16,-415,13449,-149,5,-292,-168,35099,-27,39,127,0,0,1,0,1,0,100,0,100,0,0,-1,1,6,0,31,1,3634,-142,1899,-12,-298,9,-9,0,-13,45,0,18572,2658,1160,0,9826,-4228,272,7959,-4,0,0,-33,0,571468,0
571489,84,-2018,447,307,19,-425,13382,-143,5,-297,-184,35091,-25,39,127,0,0,1,0,1,0,100,0,100,0,0,-1,1,6,0,34,1,3623,-109,1886,-12,-310,9,-9,0,-13,45,0,18513,2645,1159,0,9826,-4228,272,7969,-4,0,0,-33,0,571487,0
571499,68,-2024,465,303,10,-431,13319,-129,8,-326,-232,35092,-5,39,127,0,0,1,0,1,0,100,0,100,0,0,-1,3,6,0,36,1,3607,-164,1873,-13,-322,9,-9,0,-13,45,0,18430,2634,1159,0,9826,-4228,272,7979,-4,0,0,-33,0,571487,0
571509,93,-2017,453,287,0,-425,13249,-168,-6,-337,-200,35093,-20,38,127,0,0,1,0,1,0,100,0,100,0,0,-1,2,6,0,39,2,3594,-164,1860,-12,-335,9,-9,0,-13,45,0,18360,2620,1158,0,9826,-4228,272,7989,-4,0,0,-33,0,571500,0
571519,74,-2021,452,281,-5,-439,13164,-191,-52,-244,-216,35100,-27,38,127,0,0,1,0,1,0,100,0,100,0,0,-1,1,6,0,41,2,3583,-142,1846,-13,-347,9,-9,0,-13,45,0,18300,2603,1158,0,9826,-4228,272,7999,-4,0,0,-33,0,571518,0
571529,80,-2014,480,294,-4,-490,13096,-145,5,-302,-168,35107,-41,38,127,0,0,1,0,1,0,100,0,100,0,0,-1,3,6,0,44,2,3568,-153,1832,-14,-359,9,-9,0,-13,45,0,18219,2590,1158,0,9826,-4228,272,8009,-4,0,0,-33,0,571521,0
571539,85,-2003,478,264,10,-511,13024,-174,25,-299,-184,35106,-23,39,127,0,0,1,0,1,0,100,0,100,0,0,-1,3,6,0,46,2,3552,-153,1817,-15,-372,9,-9,0,-13,45,0,18138,2576,1157,0,9826,-4228,272,8019,-4,0,0,-33,0,571552,0
571549,82,-2022,494,240,35,-512,12949,-139,-24,-253,-168,35101,-16,39,127,0,0,1,0,1,0,100,0,100,0,0,-1,3,6,0,49,3,3539,-131,1802,-15,-387,9,-9,0,-13,45,0,18069,2562,1157,0,9826,-4228,272,8029,-4,0,0,-33,0,571552,0
571559,178,-2008,464,243,23,-515,12894,-109,44,-371,-216,35090,-9,39,127,0,0,1,0,1,0,100,0,100,0,0,-1,2,6,0,51,3,3522,-164,1786,-15,-402,9,-9,0,-13,45,0,17977,2551,1157,0,9826,-4228,272,8039,-4,0,0,-33,0,571552,0
571569,183,-2018,431,221,32,-486,12822,-179,-1,-346,-192,35091,-6,39,127,0,0,1,0,1,0,100,0,100,0,0,-1,1,6,0,54,3,3511,-142,1771,-14,-418,9,-9,0,-13,45,0,17919,2537,1157,0,9826,-4228,272,8049,-4,0,0,-33,0,571552,0
571579,182,-2023,497,212,53,-466,12733,-188,-74,-279,-176,35093,-3,39,127,0,0,1,0,1,0,100,0,100,0,0,-1,2,6,0,56,4,3498,-98,1756,-14,-433,9,-9,0,-13,45,0,17850,2520,1156,0,9826,-4228,272,8059,-4,0,0,-33,0,571570,0
571589,217,-2037,564,173,53,-412,12661,-153,16,-239,-176,35105,2,38,127,0,0,1,0,1,0,100,0,100,0,0,-1,2,6,0,59,4,3484,-164,1743,-12,-448,9,-9,0,-13,45,0,17781,2506,1156,0,9826,-4228,272,8069,-4,0,0,-33,0,571651,0
571599,250,-2038,609,138,43,-368,12599,-142,49,-259,-168,35114,-13,39,127,0,0,1,0,1,0,100,0,100,0,0,-1,2,6,0,61,5,3473,-109,1731,-11,-463,9,-9,0,-13,45,0,17723,2494,1156,0,9826,-4228,272,8079,-4,0,0,-33,0,571653,0
571609,278,-2024,566,106,10,-283,12542,-113,24,-275,-120,35112,-26,39,127,0,0,1,0,1,0,100,0,100,0,0,-1,3,6,0,64,5,3465,-98,1721,-8,-476,9,-9,0,-13,45,0,17677,2482,1156,0,9826,-4228,272,8089,-4,0,0,-33,0,571653,0
571619,253,-2021,524,85,-15,-257,12499,-80,44,-336,-88,35101,-41,39,127,0,0,1,0,1,0,100,0,100,0,0,-1,3,6,0,66,6,3460,-32,1712,-7,-487,9,-9,0,-13,45,0,17654,2474,1155,0,9826,-4228,272,8099,-4,0,0,-33,0,571653,0
571629,150,-2015,508,66,-19,-229,12463,-83,33,-307,-120,35093,-44,39,127,0,0,1,0,1,0,100,0,100,0,0,-1,3,6,0,69,7,3451,-76,1705,-6,-495,9,-9,0,-13,45,0,17608,2467,1155,0,9826,-4228,272,8109,-4,0,0,-33,0,571653,0
571639,58,-2017,489,64,3,-264,12425,-78,4,-307,-104,35094,-36,39,127,0,0,1,0,1,0,100,0,100,0,0,-1,2,6,0,71,7,3445,-32,1698,-8,-500,9,-9,0,-13,45,0,17573,2459,1155,0,9826,-4228,272,8119,-4,0,0,-33,0,571668,0
571649,72,-2019,500,46,-1,-322,12380,-85,-11,-221,-120,35090,-31,39,127,0,0,1,0,1,0,100,0,100,0,0,-1,2,6,0,74,8,3434,-109,1689,-9,-507,9,-9,0,-13,45,0,17516,2451,1155,0,9826,-4228,272,8129,-4,0,0,-33,0,571668,0
571659,124,-2008,492,38,-36,-327,12350,-75,16,-354,-144,35088,-31,39,127,0,0,1,0,1,0,100,0,100,0,0,-1,2,6,0,76,8,3427,-65,1679,-9,-514,9,-9,0,-13,45,0,17481,2445,1155,0,9826,-4228,272,8139,-4,0,0,-33,0,571668,0
571669,28,-2013,491,25,-42,-385,12307,-96,-3,-325,-168,35091,-37,39,127,0,0,1,0,1,0,100,0,100,0,0,-1,2,6,0,79,9,3416,-120,1668,-11,-522,9,-9,0,-13,45,0,17423,2436,1154,0,9826,-4228,272,8149,-4,0,0,-33,0,571668,0
571679,78,-2006,508,23,-51,-434,12251,-139,-51,-284,-152,35099,-35,39,127,0,0,1,0,1,0,100,0,100,0,0,-1,1,6,0,81,10,3407,-65,1656,-13,-531,9,-9,0,-13,45,0,17377,2425,1154,0,9826,-4228,272,8159,-4,0,0,-33,0,571668,0
571689,93,-2015,550,-16,-46,-509,12189,-137,-33,-262,-160,35112,-26,39,127,0,0,1,0,1,0,100,0,100,0,0,-1,2,6,0,84,11,3392,-109,1641,-15,-542,9,-9,0,-13,45,0,17297,2413,1154,0,9826,-4228,272,8169,-4,0,0,-33,0,571668,0
571699,41,-2023,577,-41,-60,-553,12137,-114,12,-324,-168,35113,-11,39,127,0,0,1,0,1,0,100,0,100,0,0,-1,4,6,0,86,11,3377,-164,1625,-16,-555,9,-9,0,-13,45,0,17216,2403,1154,0,9826,-4228,272,8179,-4,0,0,-33,0,571736,0
571709,75,-2017,574,-85,-86,-620,12083,-128,25,-426,-280,35105,2,39,127,0,0,1,0,1,0,100,0,100,0,0,-1,2,6,0,89,12,3361,-142,1607,-18,-570,9,-9,0,-13,45,0,17136,2392,1153,0,9826,-4228,272,8189,-4,0,0,-33,0,571736,0
571719,66,-2002,536,-100,-94,-687,11997,-204,-64,-373,-280,35095,0,39,127,0,0,1,0,1,0,100,0,100,0,0,-1,2,6,0,91,12,3339,-208,1587,-20,-587,9,-9,0,-13,45,0,17021,2375,1153,0,9826,-4228,272,8199,-4,0,0,-33,0,571736,0
571729,140,-2003,472,-104,-79,-745,11901,-217,-89,-357,-304,35089,-18,39,127,0,0,1,0,1,0,100,0,100,0,0,-1,3,6,0,94,13,3322,-208,1565,-22,-605,9,-9,0,-13,45,0,16930,2356,1152,0,9826,-4228,272,8209,-4,0,0,-33,0,571736,0
571739,209,-1987,447,-106,-76,-768,11795,-237,-31,-306,-304,35086,-30,39,127,0,0,1,0,1,0,100,0,100,0,0,-1,1,6,0,96,13,3300,-208,1542,-23,-627,9,-9,0,-13,45,0,16815,2335,1152,0,9826,-4228,272,8219,-4,0,0,-33,0,571750,0
571749,264,-2004,449,-113,-86,-748,11691,-220,-20,-372,-328,35083,-41,39,127,0,0,1,0,1,0,100,0,100,0,0,-1,1,6,0,99,14,3278,-219,1518,-22,-650,9,-9,0,-13,45,0,16701,2315,1151,0,9826,-4228,272,8229,-4,0,0,-33,0,571751,0
571759,301,-1995,455,-100,-93,-726,11578,-254,-13,-297,-288,35084,-34,39,127,0,0,1,0,1,0,100,0,100,0,0,-1,3,5,0,101,14,3260,-219,1496,-22,-674,9,-9,0,-13,45,0,16609,2293,1151,0,9826,-4228,272,8239,-4,0,0,-33,0,571751,0
571769,307,-1991,468,-93,-96,-679,11476,-210,1,-336,-288,35095,-41,39,127,0,0,1,0,1,0,100,0,100,0,0,-1,2,5,0,104,15,3240,-241,1474,-20,-697,9,-9,0,-13,45,0,16506,2272,1151,0,9826,-4228,272,8249,-4,0,0,-33,0,571751,0
571779,306,-1996,471,-99,-99,-666,11367,-243,13,-279,-248,35107,-30,39,127,0,0,1,0,1,0,100,0,100,0,0,-1,2,5,0,106,15,3225,-186,1454,-20,-720,9,-9,0,-13,45,0,16426,2251,1150,0,9826,-4228,272,8259,-4,0,0,-33,0,571786,0
571789,271,-2000,463,-100,-80,-626,11270,-192,3,-282,-232,35112,-36,39,127,0,0,1,0,1,0,100,0,100,0,0,-1,3,5,0,109,16,3210,-142,1434,-19,-740,9,-9,0,-13,45,0,16346,2232,1150,0,9826,-4228,272,8269,-4,0,0,-33,0,571802,0
571799,262,-1993,484,-104,-85,-640,11176,-212,44,-284,-208,35105,-26,39,127,0,0,1,0,1,0,100,0,100,0,0,-1,1,6,0,111,16,3190,-164,1415,-19,-760,9,-9,0,-13,45,0,16243,2213,1150,0,9826,-4228,272,8279,-4,0,0,-33,0,571802,0
571809,278,-1985,463,-103,-69,-628,11090,-185,13,-339,-208,35093,-28,39,127,0,0,1,0,1,0,100,0,100,0,0,-1,2,6,0,114,16,3172,-175,1395,-19,-780,9,-9,0,-13,45,0,16152,2196,1149,0,9826,-4228,272,8289,-4,0,0,-33,0,571802,0
571819,312,-1984,462,-105,-81,-625,11008,-177,26,-314,-224,35091,-25,39,127,0,0,1,0,1,0,100,0,100,0,0,-1,2,6,0,116,16,3157,-186,1376,-19,-799,9,-9,0,-13,45,0,16074,2180,1149,0,9826,-4228,272,8299,-4,0,0,-33,0,571802,0
571829,271,-2006,464,-102,-88,-606,10921,-190,-2,-325,-256,35099,-24,39,127,0,0,1,0,1,0,100,0,100,0,0,-1,2,6,0,119,17,3137,-175,1357,-18,-819,9,-9,0,-13,45,0,15974,2164,1148,0,9826,-4228,272,8309,-4,0,0,-33,0,571835,0
571839,284,-2000,448,-100,-99,-611,10833,-200,-9,-297,-184,35100,-2,39,127,0,0,1,0,1,0,100,0,100,0,0,-1,2,6,0,121,17,3124,-131,1339,-18,-837,9,-9,0,-13,45,0,15907,2147,1147,0,9826,-4228,272,8319,-4,0,0,-33,0,571835,0
571849,226,-1989,422,-75,-77,-631,10752,-152,4,-277,-216,35104,-8,39,127,0,0,1,0,1,0,100,0,100,0,0,-1,1,7,0,124,17,3106,-164,1320,-19,-855,9,-9,0,-13,45,0,15818,2131,1147,0,9826,-4228,272,8329,-4,0,0,-33,0,571835,0
571859,247,-1980,468,-74,-72,-656,10678,-170,36,-353,-248,35093,-19,39,127,0,0,1,0,1,0,100,0,100,0,0,-1,2,7,0,126,17,3087,-197,1300,-20,-872,9,-9,0,-13,45,0,15718,2117,1146,0,9826,-4228,272,8339,-4,0,0,-33,0,571835,0
571869,267,-2001,479,-87,-72,-682,10589,-195,-6,-319,-240,35099,-30,39,127,0,0,1,0,1,0,100,0,100,0,0,-1,2,7,0,129,18,3071,-175,1280,-20,-892,9,-9,0,-13,45,0,15640,2100,1146,0,9826,-4228,272,8349,-4,0,0,-33,0,571873,0
571879,313,-1999,494,-82,-73,-686,10514,-161,-12,-320,-272,35101,-25,39,127,0,0,1,0,1,0,100,0,100,0,0,-1,2,7,0,131,18,3049,-219,1259,-20,-912,9,-9,0,-13,45,0,15528,2085,1145,0,9826,-4228,272,8359,-4,0,0,-33,0,571873,0
571889,345,-1962,490,-93,-96,-676,10422,-216,-2,-337,-280,35105,-17,39,127,0,0,1,0,1,0,100,0,100,0,0,-1,3,8,0,134,18,3034,-186,1238,-20,-933,9,-9,0,-13,45,0,15450,2068,1144,0,9826,-4228,272,8369,-4,0,0,-33,0,571873,0
571899,301,-1980,457,-98,-111,-672,10326,-200,-35,-300,-288,35097,-16,39,127,0,0,1,0,1,0,100,0,100,0,0,-1,2,8,0,136,18,3014,-208,1217,-20,-954,9,-9,0,-13,45,0,15350,2048,1144,0,9826,-4228,272,8379,-4,0,0,-33,0,571902,0
571909,271,-1981,446,-89,-118,-701,10237,-201,13,-300,-272,35093,-20,38,127,0,0,1,0,1,0,100,0,100,0,0,-1,2,8,0,139,19,2994,-197,1197,-21,-973,9,-9,0,-13,45,0,15250,2030,1143,0,9826,-4228,272,8389,-4,0,0,-33,0,571902,0
571919,203,-1979,453,-82,-115,-753,10147,-183,11,-346,-264,35095,-25,38,127,0,0,1,0,1,0,100,0,100,0,0,-1,3,8,0,141,19,2977,-186,1175,-22,-993,9,-9,0,-13,45,0,15160,2011,1143,0,9826,-4228,272,8399,-4,0,0,-33,0,571902,0
571929,211,-1983,470,-95,-112,-833,10064,-203,9,-381,-304,35096,-17,39,127,0,0,1,0,1,0,100,0,100,0,0,-1,1,9,0,144,19,2955,-186,1151,-25,-1013,9,-9,0,-13,45,0,15043,1994,1141,0,9826,-4228,272,8409,-4,0,0,-33,0,571936,0
571939,175,-1995,488,-98,-104,-914,9967,-205,-23,-350,-320,35101,-28,39,127,0,0,1,0,1,0,100,0,100,0,0,-1,1,9,0,146,19,2931,-230,1124,-27,-1034,9,-9,0,-13,45,0,14914,1973,1140,0,9826,-4228,272,8419,-4,0,0,-33,0,571936,0
571949,248,-1973,501,-115,-90,-1016,9866,-236,-25,-403,-384,35093,-22,39,127,0,0,1,0,1,0,100,0,100,0,0,-1,2,9,0,149,20,2902,-285,1095,-31,-1059,9,-9,0,-13,45,0,14762,1952,1139,0,9826,-4228,272,8429,-4,0,0,-33,0,571936,0
571959,256,-1964,508,-130,-96,-1079,9750,-258,-41,-380,-416,35085,-15,39,127,0,0,1,0,1,0,100,0,100,0,1,-1,2,9,1,1,20,2874,-274,1063,-32,-1087,9,-9,0,-13,45,0,14610,1928,1137,0,9826,-4228,272,8439,-4,0,0,-33,0,571968,0
571969,317,-1956,503,-160,-111,-1139,9630,-289,-39,-416,-456,35085,-6,39,127,0,0,1,0,1,0,100,0,100,0,0,-1,4,9,2,3,20,2843,-285,1029,-34,-1118,9,-9,0,-13,45,0,14446,1903,1136,0,9826,-4228,272,8449,-4,0,0,-33,0,571986,0
571979,310,-1982,481,-188,-120,-1181,9492,-309,-44,-364,-480,35086,-6,39,127,0,0,1,0,1,0,100,0,100,0,0,-1,2,9,2,5,21,2810,-351,993,-36,-1151,9,-9,0,-13,45,0,14271,1874,1134,0,9826,-4228,272,8459,-4,0,0,-33,0,571986,0
571989,307,-1976,441,-188,-126,-1243,9348,-314,-44,-373,-488,35088,-9,39,127,0,0,1,0,1,0,100,0,100,0,0,-1,4,9,2,8,21,2781,-318,956,-37,-1186,9,-9,0,-13,45,0,14119,1844,1133,0,9826,-4228,272,8469,-4,0,0,-33,0,572001,0
571999,301,-1956,397,-185,-135,-1306,9203,-317,-15,-374,-528,35080,-15,39,127,0,0,1,0,1,0,100,0,100,0,0,-1,3,9,2,10,21,2744,-340,918,-39,-1221,9,-9,0,-13,45,0,13919,1814,1130,0,9826,-4228,272,8479,-4,0,0,-33,0,572002,0
572009,330,-1942,476,-192,-116,-1396,9046,-351,-19,-358,-544,35077,-25,39,127,0,0,1,0,1,0,100,0,100,0,0,-1,2,9,2,13,22,2707,-395,876,-42,-1259,9,-9,0,-13,45,0,13719,1781,1128,0,9826,-4228,272,8489,-4,0,0,-33,0,572002,0
572019,302,-1990,465,-197,-118,-1453,8885,-366,-33,-389,-592,35080,-19,39,127,0,0,1,0,1,0,100,0,100,0,0,-1,4,9,2,15,22,2667,-417,833,-44,-1299,9,-9,0,-13,45,0,13507,1747,1126,0,9826,-4228,272,8499,-4,0,0,-33,0,572002,0
572029,308,-1978,508,-204,-131,-1546,8718,-365,-30,-380,-656,35080,-15,38,127,0,0,1,0,1,0,100,0,100,0,0,-1,4,9,2,18,23,2630,-384,787,-47,-1340,9,-9,0,-13,45,0,13307,1711,1123,0,9826,-4228,272,8509,-4,0,0,-33,0,572053,0
572039,277,-1916,510,-235,-143,-1622,8542,-386,-24,-378,-712,35084,-9,39,127,0,0,1,0,1,0,100,0,100,0,0,-1,2,9,2,20,23,2583,-417,739,-49,-1384,9,-9,0,-13,45,0,13060,1673,1120,0,9826,-4228,272,8519,-4,0,0,-33,0,572053,0
572049,267,-1943,493,-262,-120,-1773,8360,-400,-19,-376,-760,35078,-11,39,127,0,0,1,0,1,0,100,0,100,0,0,-1,4,9,2,23,24,2537,-439,687,-54,-1429,9,-9,0,-13,45,0,12826,1634,1117,0,9826,-4228,272,8529,-4,0,0,-33,0,572053,0
572059,303,-1924,475,-264,-106,-1876,8173,-417,-18,-405,-848,35074,-16,39,127,0,0,1,0,1,0,100,0,100,0,0,-1,3,9,2,25,24,2487,-494,631,-57,-1478,9,-9,0,-13,45,0,12571,1594,1113,0,9826,-4228,272,8539,-4,0,0,-33,0,572053,0
572069,356,-1902,449,-279,-103,-2020,7971,-453,-47,-423,-944,35071,-21,39,127,0,0,1,0,1,0,100,0,100,0,0,-1,4,9,2,28,24,2432,-549,572,-61,-1532,9,-9,0,-13,45,0,12293,1550,1109,0,9826,-4228,272,8549,-4,0,0,-33,0,572068,0
572079,390,-1903,467,-290,-124,-2076,7759,-469,-54,-437,-1032,35072,-16,39,127,0,0,1,0,1,0,100,0,100,0,0,-1,3,9,2,30,25,2379,-527,509,-63,-1590,9,-9,0,-13,45,0,12025,1504,1105,0,9826,-4228,272,8559,-4,0,0,-33,0,572068,0
572089,490,-1862,413,-321,-160,-2148,7526,-515,-47,-411,-1048,35077,-25,39,127,0,0,1,0,1,0,100,0,100,0,0,-1,4,9,2,33,25,2322,-560,445,-65,-1652,9,-9,0,-13,45,0,11725,1453,1101,0,9826,-4228,272,8569,-4,0,0,-33,0,572102,0
572099,515,-1874,371,-307,-205,-2187,7285,-547,-53,-430,-1176,35078,-10,39,127,0,0,1,0,1,0,100,0,100,0,0,-1,4,9,2,35,26,2258,-637,379,-66,-1717,9,-9,0,-13,45,0,11389,1398,1096,0,9826,-4228,272,8579,-4,0,0,-33,0,572103,0
572109,524,-1896,379,-303,-237,-2246,7029,-567,-50,-373,-1192,35080,-13,39,127,0,0,1,0,1,0,100,0,100,0,0,-1,6,9,2,38,26,2199,-648,311,-68,-1782,9,-9,0,-13,45,0,11077,1337,1091,0,9826,-4228,272,8589,-4,0,0,-33,0,572103,0
572119,534,-1900,393,-286,-229,-2300,6770,-569,-25,-409,-1184,35071,-7,39,127,0,0,1,0,1,0,100,0,100,0,0,-1,5,9,2,40,27,2137,-582,242,-70,-1849,9,-9,0,-13,45,0,10773,1276,1087,0,9826,-4228,272,8599,-4,0,0,-33,0,572103,0
572129,535,-1911,389,-244,-236,-2368,6506,-580,-10,-410,-1256,35075,-2,39,127,0,0,1,0,1,0,100,0,100,0,0,-1,4,9,2,43,27,2076,-604,171,-72,-1918,9,-9,0,-13,45,0,10475,1219,1082,0,9826,-4228,272,8609,-4,0,0,-33,0,572137,0
572139,530,-1913,384,-262,-276,-2372,6234,-600,-23,-368,-1320,35076,18,39,127,0,0,1,0,1,0,100,0,100,0,0,-1,6,9,2,45,27,2012,-637,98,-72,-1986,9,-9,0,-13,45,0,10166,1164,1077,0,9826,-4228,272,8619,-4,0,0,-33,0,572137,0
572149,703,-1996,411,-289,-288,-2355,5959,-611,-17,-401,-1328,35077,11,39,127,0,0,1,0,1,0,100,0,100,0,0,-1,9,9,2,48,28,1953,-582,26,-71,-2057,9,-9,0,-13,45,0,9879,1109,1073,0,9826,-4228,272,8629,-4,0,0,-33,0,572137,0
572159,716,-2070,467,-325,-395,-2259,5680,-614,-17,-374,-1264,35074,-3,39,127,0,0,1,0,1,0,100,0,100,0,0,-1,12,9,2,50,28,1902,-505,-44,-68,-2127,9,-9,0,-13,45,0,9636,1049,1071,0,9826,-4228,272,8639,-4,0,0,-33,0,572137,0
572169,1166,-1996,649,-262,-736,-2059,5410,-582,7,-317,-1072,35078,-8,39,127,0,0,1,0,1,0,100,0,100,0,0,-1,20,9,2,53,29,1865,-373,-110,-62,-2193,9,-9,0,-13,45,0,9456,991,1069,0,9826,-4228,272,8649,-4,0,0,-33,0,572171,0
572179,1164,-2309,568,-215,-821,-1862,5156,-540,47,-266,-912,35083,2,39,127,0,0,1,0,1,0,100,0,100,0,0,-1,23,9,2,55,30,1834,-307,-170,-56,-2260,9,-9,0,-13,45,0,9308,937,1067,0,9826,-4228,272,8659,-4,0,0,-33,0,572171,0
572189,787,-3022,717,-161,-777,-1441,4930,-486,89,-236,-616,35086,3,39,127,0,0,1,0,1,0,100,0,100,0,0,-1,38,9,2,58,32,1825,-43,-221,-43,-2310,9,-9,0,-13,45,0,9266,888,1067,0,9826,-4228,272,8669,-4,0,0,-33,0,572186,0
572199,180,-2540,582,-138,-684,-1354,4744,-372,117,-116,-168,35081,-12,39,127,0,0,1,0,1,0,100,0,100,0,0,-1,47,9,2,60,34,1841,164,-264,-41,-2341,9,-9,0,-13,45,0,9340,848,1067,0,9826,-4228,272,8679,-4,0,0,-33,0,572186,0
572209,453,-2473,226,-174,-524,-1295,4669,-82,279,476,280,35086,-21,39,127,0,0,1,0,1,0,100,0,100,0,0,-1,52,9,2,63,39,1869,329,-304,-39,-2368,9,-9,0,-13,45,0,9477,832,1069,743,9826,-4228,272,8689,-4,0,0,-33,0,572186,0
572219,838,-2419,71,-139,-494,-1220,4748,247,546,463,488,35090,-27,39,127,0,0,1,0,1,0,100,0,100,0,0,-1,53,9,2,65,42,1911,428,-342,-37,-2396,9,-9,0,-13,45,0,9678,849,1071,724,9826,-4228,272,8699,-4,0,0,-33,0,572219,0
572229,950,-2252,217,-214,-512,-1017,4898,356,439,431,712,35088,-26,39,127,0,0,1,0,1,0,100,0,100,0,0,-1,62,9,2,68,48,1975,604,-376,-31,-2425,9,-9,0,-13,45,0,9985,881,1075,676,9826,-4228,272,8709,-4,0,0,-33,0,572219,0
572239,898,-2345,547,-238,-558,-865,5088,430,192,420,984,35087,-20,39,127,0,0,1,0,1,0,100,0,100,0,0,-1,65,9,2,70,52,2047,747,-405,-26,-2452,9,-9,0,-13,45,0,10336,922,1080,662,9826,-4228,272,8719,-4,0,0,-33,0,572252,0
572249,872,-2445,773,-249,-640,-644,5313,533,138,463,1304,35087,-2,39,127,0,0,0,0,0,0,100,0,0,0,0,-1,74,9,2,1,58,2133,878,-428,-19,-2470,0,0,0,0,20,17,10752,971,1086,734,9826,-4228,272,8729,-4,0,0,6,0,572257,0
572259,1086,-2415,870,-190,-768,-551,5588,641,171,494,1616,35086,-7,39,127,0,0,0,0,0,0,100,0,0,0,0,-1,81,9,2,3,62,2236,1054,-446,-16,-2486,0,1,1,1,23,21,11274,1030,1094,789,9826,-4228,272,8739,-4,0,0,9,0,572257,0
572269,1009,-2503,827,-263,-989,-208,5919,766,204,521,1960,35083,-1,39,127,0,0,0,0,0,0,100,0,0,0,0,-1,87,9,2,6,70,2351,1186,-458,-6,-2495,0,1,1,3,23,23,11875,1101,1103,839,9826,-4228,272,8749,-4,0,0,10,0,572257,0
572279,730,-2518,828,-433,-1104,29,6307,896,219,549,2320,35080,-7,39,127,0,0,0,0,0,0,100,0,0,0,0,-1,96,9,2,8,74,2485,1340,-460,0,-2492,0,1,1,4,26,26,12560,1179,1113,892,9826,-4228,272,8759,-4,0,0,12,0,572288,0
572289,570,-2596,828,-431,-1218,186,6767,1063,254,617,2720,35083,-2,39,127,0,0,0,0,0,0,100,0,0,0,0,-1,101,9,2,11,81,2632,1494,-457,5,-2479,0,1,1,4,29,29,13319,1275,1123,1012,9826,-4228,272,8769,-4,0,0,13,0,572301,0
572299,426,-2740,496,-415,-1277,246,7310,1249,296,593,3112,35079,8,39,127,0,0,0,0,0,0,100,0,0,0,0,-1,107,9,2,13,86,2792,1582,-451,7,-2458,0,2,2,8,33,32,14177,1404,1133,981,9826,-4228,272,8779,-4,0,0,16,0,572304,0
572309,334,-2831,521,-325,-1470,283,7933,1418,307,590,3520,35075,16,39,127,0,0,0,0,0,0,100,0,0,0,0,-1,120,9,29,16,93,2979,1845,-442,8,-2432,0,2,2,8,36,35,15171,1542,1143,984,9826,-4228,272,8789,-4,0,0,17,0,572306,0
572319,106,-2943,492,-316,-1494,356,8637,1600,310,684,4040,35065,33,39,127,0,0,0,0,0,0,100,0,0,0,0,-1,128,9,30,18,99,3175,1977,-433,10,-2404,0,2,2,10,41,38,16163,1694,1149,1148,9826,-4228,272,8799,-4,0,0,20,0,572310,0
572329,-145,-2977,402,-374,-1700,560,9420,1775,309,764,4712,35070,50,39,127,0,0,0,0,0,0,100,0,0,0,0,-1,147,9,30,21,107,3410,2395,-417,17,-2362,0,3,3,10,46,41,17389,1859,1154,1288,9826,-4228,272,8809,-4,0,0,22,0,572319,0
572339,-200,-2842,185,-342,-1762,408,10324,2104,399,965,5544,35064,77,39,127,0,0,0,0,0,0,100,0,0,0,0,-1,162,9,30,23,113,3676,2647,-402,12,-2321,0,3,3,11,54,44,18797,2048,1161,1635,9826,-4228,272,8819,-4,0,0,25,0,572370,0
572349,-261,-2671,-186,-301,-1748,299,11410,2505,613,896,6296,35057,107,39,127,0,0,0,0,0,0,100,0,0,0,0,-1,168,9,30,26,122,3948,2757,-391,9,-2280,0,4,4,11,58,47,20251,2259,1168,1528,9826,-4228,272,8829,-4,0,0,28,0,572370,0
572359,172,-2844,-224,-357,-1585,13,12643,2777,622,708,6720,35037,130,39,127,0,0,0,0,0,0,100,0,0,0,0,-1,177,9,30,28,128,4214,2691,-386,0,-2251,0,5,4,10,65,48,21651,2502,1178,1218,9826,-4228,272,8839,-4,0,0,31,0,572370,0
572369,-199,-2540,43,-569,-1369,-137,13907,2765,311,519,6816,35039,105,39,127,0,0,0,0,0,0,100,0,0,0,0,-1,191,9,30,31,136,4482,2702,-390,-4,-2229,1,5,5,7,69,51,23062,2742,1189,901,9826,-4228,272,8849,-4,0,0,34,0,572385,0
572379,297,-2626,12,-672,-1126,-601,15198,2907,96,623,7184,35039,101,39,127,0,0,0,0,0,0,100,0,0,0,0,-1,186,9,30,33,141,4739,2515,-401,-18,-2220,1,6,5,4,76,53,24487,2989,1198,1090,9826,-4228,272,8859,-4,0,0,38,0,572386,0
572389,653,-3185,200,-598,-1026,-1316,16558,2996,211,281,6696,35041,97,39,127,0,0,0,0,0,0,100,0,0,0,0,-1,178,9,30,36,149,4937,1999,-430,-40,-2236,1,7,6,2,78,56,25564,3252,1205,494,9826,-4228,272,8869,-4,0,0,41,0,572386,0
572399,386,-2809,437,-600,-1332,-1213,17854,2774,-34,113,6072,35048,79,39,127,0,0,0,0,0,0,100,0,0,0,0,-1,183,5,30,38,156,5121,1845,-469,-37,-2261,1,8,6,1,78,64,26596,3501,1211,199,9826,-4228,272,8879,-4,0,0,45,0,572386,0
572409,149,-2201,392,-587,-1778,-976,19055,2602,-330,76,5688,35068,47,39,127,0,0,0,0,0,0,100,0,0,0,0,-1,172,5,30,41,165,5319,1977,-502,-29,-2277,1,8,7,2,82,67,27700,3722,1217,135,9826,-4228,272,8889,-4,0,0,47,0,572452,0
572419,-84,-1799,446,-466,-1958,-936,20202,2490,-264,161,5368,35091,17,39,127,0,0,0,0,0,0,100,0,0,0,0,-1,159,5,30,43,172,5508,1889,-531,-28,-2284,1,9,8,4,87,68,28759,3939,1222,287,9826,-4228,272,8899,-4,0,0,51,0,572468,0
572429,699,-1785,631,-163,-1750,-1259,21261,2225,-278,-285,2776,35095,12,39,127,0,0,0,0,0,0,100,0,0,0,0,-1,151,5,30,46,179,5673,1636,-563,-38,-2295,1,10,8,7,89,67,29669,4138,1224,0,9826,-4228,272,8909,-4,0,0,54,0,572470,0
572439,987,-2674,100,-178,-1080,-2358,21986,1246,-880,-1818,-464,35095,-30,39,127,0,0,0,0,0,0,100,0,0,0,0,-1,116,6,30,48,184,5690,21,-618,-71,-2351,1,11,9,13,90,65,29765,4276,1225,0,9826,-4228,272,8919,-4,0,0,58,0,572471,0
572449,965,-3200,386,-35,-65,-3462,21882,-797,-2388,-2981,-4008,35087,-39,39,127,0,0,0,0,0,0,100,0,0,0,0,-1,92,6,30,51,191,5548,-1538,-704,-105,-2433,1,12,10,13,86,71,28982,4256,1223,0,9826,-4228,272,8929,-4,0,0,61,0,572471,0
572459,787,-3114,605,-33,165,-3915,21087,-2185,-2951,-2223,-3872,35061,47,39,127,0,0,0,0,0,0,100,0,0,0,0,-1,128,6,30,53,197,5310,-2449,-818,-119,-2536,1,13,11,14,85,80,27651,4104,1217,0,9826,-4228,272,8939,-4,0,0,64,0,572485,0
572469,1190,-2999,680,-136,-653,-4499,20319,-1009,-1032,4674,1696,35063,73,39,127,0,0,0,0,0,0,100,0,0,0,0,-1,156,6,30,56,209,5031,-2845,-946,-137,-2658,1,14,11,15,85,86,26089,3960,1209,8250,9826,-4228,272,8949,-4,0,0,66,0,572485,0
572479,1393,-3380,488,-144,-1199,-3719,20505,288,2233,-1767,-1640,35057,107,39,127,0,0,0,0,0,0,100,0,0,0,0,-1,151,6,30,58,217,4774,-2504,-1073,-113,-2777,2,15,12,17,84,96,24685,3994,1199,0,9826,-4228,272,8959,-4,0,0,69,0,572485,0
572489,962,-3295,482,-134,-2123,-3977,20156,-1027,415,-1564,-3312,35078,52,39,127,0,0,0,0,0,0,100,0,0,0,0,-1,153,7,30,61,229,4550,-2296,-1186,-121,-2886,2,15,13,18,91,100,23422,3930,1191,0,9826,-4228,272,8969,-4,0,0,71,0,572486,0
572499,862,-3219,665,115,-2930,-4023,19491,-1626,-1693,-1110,-4136,35085,44,39,127,0,0,0,0,0,0,100,0,0,0,0,-1,131,7,30,63,240,4359,-1834,-1308,-122,-2993,2,16,15,20,88,114,22412,3804,1185,0,9826,-4228,272,8979,-4,0,0,74,0,572487,0
572509,1440,-3010,478,-47,-3665,-3932,18687,-1802,-806,-553,-4304,35084,79,39,127,0,0,0,0,0,0,100,0,0,0,0,-1,103,7,30,66,260,4209,-1483,-1431,-119,-3107,2,17,15,25,90,120,21628,3654,1178,0,9826,-4228,272,8989,-4,0,0,76,0,572522,0
572519,1612,-3152,546,-109,-3816,-3734,17870,-1768,-229,-218,-3856,35081,70,39,127,0,0,0,0,0,0,100,0,0,0,0,-1,79,7,30,68,276,4104,-1054,-1548,-113,-3218,2,18,17,27,94,129,21073,3504,1174,0,9826,-4228,272,8999,-4,0,0,79,0,572523,0
572529,1631,-2966,375,-97,-3941,-3818,17106,-1635,107,-82,-3296,35079,32,39,127,0,0,0,0,0,0,100,0,0,0,0,-1,81,8,30,71,300,4007,-944,-1662,-116,-3328,3,19,18,30,97,135,20564,3358,1170,0,9826,-4228,272,9009,-4,0,0,81,0,572523,0
572539,1773,-2789,219,-203,-3864,-4017,16411,-1473,245,-74,-2888,35080,-12,39,127,0,0,0,0,0,0,100,0,0,0,0,-1,83,8,30,73,316,3895,-1109,-1781,-122,-3444,3,20,20,35,100,145,19971,3224,1167,0,9826,-4228,272,9019,-4,0,0,85,98,572523,0
572549,1989,-2724,134,-269,-3522,-4222,15782,-1353,265,-253,-3048,35087,-18,39,127,0,0,0,0,0,0,100,0,0,0,0,-1,71,8,30,76,341,3761,-1373,-1908,-128,-3569,3,21,21,37,101,151,19259,3100,1163,0,9826,-4228,272,9029,-4,0,0,87,99,572553,0
572559,1899,-2702,105,-300,-3283,-4247,15169,-1379,136,-556,-3440,35091,-5,39,127,0,0,0,0,0,0,100,0,0,0,0,-1,74,8,30,78,356,3610,-1538,-2037,-129,-3698,4,22,23,40,103,159,18442,2983,1159,0,9826,-4228,272,9039,-4,0,0,90,102,572555,0
572569,1776,-2525,25,-343,-2976,-4201,14508,-1491,-96,-598,-3696,35084,15,39,127,0,0,0,0,0,0,100,0,0,0,0,-1,68,9,30,81,380,3460,-1516,-2166,-128,-3825,4,23,24,42,105,164,17654,2857,1155,0,9826,-4228,272,9049,-4,0,0,92,104,572559,0
572579,1798,-2317,-105,-298,-2778,-4211,13809,-1548,-167,-469,-3776,35083,23,39,127,0,0,0,0,0,0,100,0,0,0,0,-1,60,9,30,83,395,3322,-1362,-2294,-128,-3950,5,24,26,44,110,171,16930,2724,1152,0,9826,-4228,272,9059,-4,0,0,95,107,572586,0
572589,1770,-1962,-321,-158,-2369,-4178,13097,-1575,-82,-396,-3680,35089,19,39,127,0,0,0,0,0,0,100,0,0,0,0,-1,43,9,30,86,415,3197,-1241,-2422,-127,-4078,5,25,28,46,112,174,16277,2590,1150,0,9826,-4228,272,9069,-4,0,0,97,109,572586,0
572599,1671,-1671,-384,-82,-2073,-4074,12372,-1595,-51,-311,-3368,35086,23,39,127,0,0,0,0,0,0,100,0,0,0,0,-1,38,9,30,88,427,3082,-1120,-2548,-124,-4206,6,27,30,48,114,177,15695,2449,1146,0,9826,-4228,272,9079,-4,0,0,100,111,572586,0
572609,1542,-1323,-480,-29,-1584,-3776,11680,-1489,48,-208,-3064,35078,18,39,127,0,0,0,0,0,0,100,0,0,0,0,-1,32,10,30,91,443,2983,-933,-2669,-115,-4331,6,28,31,49,116,177,15194,2313,1143,0,9826,-4228,272,9089,-4,0,0,102,112,572604,0
572619,1577,-1118,-492,19,-1329,-3544,11050,-1340,198,-146,-2648,35082,-3,39,127,0,0,0,0,0,0,100,0,0,0,0,-1,36,10,30,93,451,2891,-889,-2780,-108,-4450,7,29,33,49,119,174,14703,2189,1138,0,9826,-4228,272,9099,-4,0,0,105,114,572641,0
572629,1431,-838,-464,83,-1001,-3125,10496,-1177,269,-176,-2448,35094,-21,39,127,0,0,0,0,0,0,100,0,0,0,0,-1,39,10,30,96,459,2805,-834,-2882,-95,-4564,7,30,35,48,121,172,14247,2082,1134,0,9826,-4228,272,9109,-4,0,0,107,115,572641,0
572639,1211,-708,-478,115,-832,-2787,10000,-1050,254,-216,-2208,35096,-21,39,127,0,0,0,0,0,0,100,0,0,0,0,-1,41,10,30,98,461,2724,-791,-2972,-85,-4668,8,31,37,47,123,167,13813,1980,1129,0,9826,-4228,272,9119,-4,0,0,110,116,572645,0
572649,1063,-463,-463,145,-577,-2142,9552,-960,205,-253,-2008,35082,-7,39,127,0,0,0,0,0,0,100,0,0,0,0,-1,47,10,30,101,-1,2649,-714,-3048,-65,-4759,8,32,38,46,124,162,13413,1887,1125,0,9826,-4228,272,9129,-4,0,0,112,116,572645,0
572659,918,-388,-336,167,-450,-1607,9137,-886,149,-254,-1808,35072,-19,39,127,0,0,0,0,0,0,100,0,0,0,0,-1,51,11,30,103,-4,2586,-626,-3105,-49,-4835,9,34,40,45,127,153,13072,1800,1121,0,9826,-4228,272,9139,-4,0,0,115,117,572656,0
572669,668,-184,-337,219,-170,-843,8751,-819,121,-218,-1624,35083,-34,38,127,0,0,0,0,0,0,100,0,0,0,0,-1,62,11,30,106,-15,2522,-670,-3143,-25,-4895,9,35,41,44,128,145,12749,1718,1116,0,9826,-4228,272,9149,-4,0,0,118,117,572656,0
572679,498,-73,-328,235,55,-275,8393,-769,112,-258,-1520,35093,-36,38,127,0,0,0,0,0,0,100,0,0,0,0,-1,69,11,30,108,-26,2456,-637,-3160,-8,-4940,9,37,43,42,131,132,12415,1641,1111,0,9826,-4228,272,9159,-4,0,0,121,116,572670,0
572689,332,78,-312,293,450,704,8059,-720,93,-292,-1384,35096,-17,39,127,0,0,0,0,0,0,100,0,0,0,0,-1,77,11,30,111,-46,2399,-560,-3154,21,-4975,10,38,44,41,133,121,12126,1569,1106,0,9826,-4228,272,9169,-4,0,0,123,115,572758,0
572699,334,237,-288,351,689,1369,7744,-665,81,-262,-1248,35087,-2,39,127,0,0,0,0,0,0,100,0,0,0,0,-1,85,20,30,113,-63,2348,-549,-3122,41,-5007,10,39,45,39,137,104,11864,1501,1103,0,9826,-4228,272,9179,-4,0,0,126,114,572758,0
572709,238,406,-280,452,1004,2400,7448,-633,150,-246,-1136,35080,-23,39,127,0,0,0,0,0,0,100,0,0,0,0,-1,99,20,30,116,-94,2300,-494,-3065,73,-5039,11,40,46,38,140,91,11609,1436,1099,0,9826,-4228,272,9189,-4,0,0,128,113,572758,0
572719,250,445,-220,491,1068,3176,7179,-577,118,-238,-944,35080,-27,39,127,0,0,0,0,0,0,100,0,0,0,0,-1,109,20,30,118,-117,2260,-384,-2980,96,-5055,11,42,47,37,143,72,11401,1373,1096,0,9826,-4228,272,9199,-4,0,0,131,110,572758,0
572729,263,380,-140,690,1047,4190,6934,-517,15,-204,-752,35083,-43,39,127,0,0,0,0,0,0,100,0,0,0,0,-1,122,21,30,121,-156,2232,-307,-2867,127,-5039,11,43,47,36,145,59,11250,1315,1094,0,9826,-4228,272,9209,-4,0,0,133,109,572770,0
572739,206,342,-140,832,981,4797,6721,-458,113,-239,-544,35079,-33,39,127,0,0,0,0,0,0,100,0,0,0,0,-1,133,21,30,123,-183,2208,-219,-2730,146,-4998,12,45,48,37,147,41,11123,1264,1092,0,9826,-4228,272,9219,-4,0,0,136,106,572771,0
572749,146,354,-110,1043,844,5545,6543,-363,122,-200,-384,35078,-31,39,127,0,0,0,0,0,0,100,0,0,0,0,-1,146,21,30,126,-227,2188,-186,-2572,169,-4945,12,46,48,37,148,30,11019,1226,1090,0,9826,-4228,272,9229,-4,0,0,138,103,572771,0
572759,240,430,-148,1184,805,5995,6398,-291,130,-174,-200,35082,-33,39,127,0,0,0,0,0,0,100,0,0,0,0,-1,152,22,30,128,-256,2177,-109,-2396,182,-4873,12,48,48,39,151,14,10965,1197,1089,0,9826,-4228,272,9239,-4,0,0,141,100,572771,0
572769,330,464,-203,1422,669,6501,6293,-191,136,-58,-104,35083,-26,39,127,0,0,0,0,0,0,100,0,0,100,0,-1,163,22,30,131,-300,2166,-109,-2204,198,-4781,13,49,48,40,152,3,10911,1176,1089,0,9826,-4228,272,9249,-4,0,0,143,98,572771,0
572779,309,374,-232,1544,579,6787,6248,-69,196,-192,-72,35072,-35,39,127,0,0,0,0,0,0,100,0,0,100,0,-1,172,22,30,133,-329,2159,-54,-2001,207,-4675,13,51,48,41,152,-10,10879,1167,1088,0,9826,-4228,272,9259,-4,0,0,146,94,572771,0
572789,399,205,-161,1664,586,7086,6234,-34,179,-329,-88,35082,-55,39,127,0,0,0,0,0,0,100,0,0,100,0,-1,180,23,30,136,-371,2157,-10,-1789,216,-4546,14,52,48,42,152,-18,10869,1164,1088,0,9826,-4228,272,9269,-4,0,0,148,92,572788,0
572799,387,122,-252,1771,740,7115,6218,-49,50,-290,-48,35096,-61,39,127,0,0,0,0,0,0,100,0,0,100,0,-1,179,23,30,138,-397,2157,32,-1572,217,-4396,14,54,48,43,152,-30,10869,1161,1088,0,9826,-4228,272,9279,-4,0,0,151,88,572790,0
572809,625,36,-274,1875,975,7012,6203,-17,-6,-90,-8,35108,-50,39,127,0,0,0,0,0,0,100,0,0,100,0,-1,176,23,30,141,-433,2157,0,-1356,213,-4237,14,55,48,43,153,-36,10869,1158,1088,0,9826,-4228,272,9289,-4,0,0,153,86,572819,0
572819,800,-46,-238,1863,1121,6890,6206,5,40,-108,-32,35101,-23,39,127,0,0,0,0,0,0,100,0,0,100,0,-1,172,24,30,143,-455,2162,10,-1144,210,-4073,15,57,47,43,151,-45,10890,1158,1088,0,9826,-4228,272,9299,-4,0,0,156,82,572819,0
572829,912,-198,-389,1771,1492,6578,6208,22,27,19,-8,35084,-31,39,127,0,0,0,0,0,0,100,0,0,100,0,-1,160,24,30,146,-485,2162,10,-938,200,-3909,15,58,47,42,150,-49,10890,1159,1088,30,9826,-4228,272,9309,-4,0,0,158,80,572836,0
572839,1097,-253,-526,1691,1840,6283,6209,1,-4,18,32,35083,-43,39,127,0,0,0,0,0,0,100,0,0,100,0,-1,154,24,30,148,-502,2164,10,-742,191,-3752,16,60,46,40,147,-54,10901,1159,1088,28,9826,-4228,272,9319,-4,0,0,160,76,572838,0
572849,1447,-470,-566,1527,2225,5763,6211,6,-4,116,80,35081,-61,39,127,0,0,0,0,0,0,100,0,0,100,0,-1,136,25,30,151,-525,2175,120,-558,175,-3605,16,61,46,37,144,-57,10954,1159,1089,184,9826,-4228,272,9329,-4,0,0,162,74,572843,0
572859,1738,-631,-452,1418,2319,5309,6240,80,45,317,176,35081,-57,39,127,0,0,0,0,0,0,100,0,0,100,0,-1,126,25,30,153,-538,2195,175,-389,162,-3472,17,63,45,32,138,-60,11054,1165,1091,505,9826,-4228,272,9339,-4,0,0,164,71,572853,0
572869,2218,-1005,-206,1211,2155,4511,6318,198,146,262,240,35082,-53,39,127,0,0,0,0,0,0,100,0,0,100,0,-1,121,25,30,156,-554,2223,274,-239,137,-3356,17,64,44,28,131,-60,11204,1181,1093,418,9826,-4228,272,9349,-4,0,0,165,69,572853,0
572879,2454,-1122,-57,1050,1788,4021,6421,224,141,320,312,35092,-61,39,127,0,0,0,0,0,0,100,0,0,100,0,-1,120,26,30,158,-561,2260,373,-108,122,-3258,17,66,44,23,117,-57,11401,1202,1096,512,9826,-4228,272,9359,-4,0,0,167,66,572893,0
572889,2824,-1355,113,801,873,3161,6549,314,93,327,480,35108,-65,39,127,0,0,0,0,0,0,100,0,0,100,0,-1,119,26,30,161,-568,2302,439,0,96,-3181,17,66,43,20,106,-54,11621,1227,1099,524,9826,-4228,272,9369,-4,0,0,167,65,572894,0
572899,3083,-1558,241,656,90,2515,6707,371,111,309,624,35106,-50,39,127,0,0,0,0,0,0,100,0,0,100,0,-1,112,26,30,163,-569,2355,527,87,76,-3127,18,68,43,17,85,-47,11898,1261,1103,497,9826,-4228,272,9379,-4,0,0,168,63,572894,0
572909,3117,-1707,415,466,-1136,1576,6890,411,106,294,648,35086,-33,39,127,0,0,1,0,0,1,100,0,0,200,0,-1,112,27,30,166,2,2401,483,149,48,-3095,18,68,42,16,77,-45,12138,1304,1107,475,9826,-4228,272,9389,-4,0,0,168,62,572894,0
572919,2898,-1653,377,350,-1928,997,7088,447,80,245,672,35075,-43,39,127,0,0,1,0,0,1,100,0,0,200,0,-1,103,27,30,168,7,2438,395,189,30,-3086,18,68,42,16,77,-45,12326,1351,1109,397,9826,-4228,272,9399,-4,0,0,168,62,572921,0
572929,2403,-1250,52,160,-2722,220,7291,449,40,232,600,35081,-55,39,127,0,0,1,0,0,1,100,0,0,200,0,-1,94,27,30,171,18,2480,395,207,6,-3098,18,68,42,16,77,-45,12538,1399,1113,377,9826,-4228,272,9409,-4,0,0,168,62,572921,0
572939,2882,-1420,-185,29,-2854,-415,7488,440,2,215,496,35087,-60,39,127,0,0,1,0,0,1,100,0,0,200,0,-1,82,28,30,173,27,2498,197,205,-12,-3132,18,68,42,16,77,-45,12626,1445,1114,349,9826,-4228,272,9419,-4,0,0,168,62,572936,0
572949,2247,-2011,614,755,-449,-3749,7731,616,10,2715,4232,35079,-38,39,127,0,0,1,0,0,1,100,0,0,200,0,0,147,28,30,176,42,2377,-1362,-45,-114,-3217,18,68,42,16,77,-45,12014,1498,1105,4381,9053,369,273,5,1,0,3,168,62,572940,0
572959,730,-2480,732,866,877,-3251,8384,916,941,-3549,-1816,35029,80,39,127,0,0,1,0,0,1,100,0,0,200,0,0,101,28,30,178,53,2217,-1516,-155,-99,-3314,18,68,42,16,77,-45,11169,1639,1092,0,9053,369,273,15,1,0,3,168,62,572987,0
572969,-1042,-2544,1461,-1,-92,-2767,8059,-893,-1190,-992,-2528,35027,112,39,127,0,0,1,0,0,1,100,0,0,200,0,0,115,29,30,181,69,2065,-1549,-251,-84,-3392,18,68,42,16,77,-45,10421,1569,1081,0,9053,369,273,25,1,0,3,168,62,572990,0
572979,1143,-2248,-397,-439,-786,-2375,7590,-1008,-2171,-68,-480,35029,106,39,127,0,0,1,0,0,1,100,0,0,200,0,0,75,29,30,183,80,1968,-933,-326,-72,-3430,18,68,42,16,77,-45,9953,1467,1074,0,9053,369,273,35,1,0,3,168,62,572990,0
572989,1008,-3008,-9,-197,-130,-2396,7295,-507,97,340,-416,35069,-11,39,127,0,0,1,0,0,1,100,0,0,200,0,0,65,29,30,186,95,1865,-1010,-404,-73,-3494,18,68,42,16,77,-45,9456,1400,1069,530,9053,369,273,45,1,0,3,168,62,572990,0
572999,889,-2580,614,-176,188,-2405,7193,47,713,1150,-64,35056,-30,38,127,0,0,1,0,0,1,100,0,0,200,0,0,54,30,30,188,104,1784,-878,-477,-73,-3553,18,68,42,16,77,-45,9066,1376,1064,1787,9053,369,273,55,1,0,3,168,62,572990,0
573009,1443,-1968,66,-837,-98,-1834,7221,42,658,113,432,35057,-58,38,127,0,0,1,0,0,1,100,0,0,200,0,0,45,30,30,191,116,1735,-439,-536,-55,-3593,18,68,42,16,77,-45,8841,1383,1063,175,9053,369,273,65,1,0,3,168,62,572990,0
573019,660,-1635,-239,-680,14,-1682,7333,276,388,383,184,35062,-40,39,127,0,0,1,0,0,1,100,0,0,200,0,0,38,30,30,193,124,1689,-417,-590,-51,-3638,18,68,42,16,77,-45,8626,1409,1061,593,9053,369,273,75,1,0,3,168,62,573044,0
573029,951,-1213,287,-713,323,-1790,7393,14,96,-553,-520,35074,-27,39,127,0,0,1,0,1,1,100,0,100,200,0,0,25,30,30,196,134,1636,-560,-645,-54,-3694,18,68,42,16,77,-45,8381,1424,1059,0,9053,369,273,85,1,0,3,168,62,573044,0
573039,1387,-1190,393,-805,302,-1756,7255,-369,-502,-478,-360,35070,-22,39,127,0,0,1,0,1,1,100,0,100,200,0,0,29,30,25,2,137,1577,-560,-698,-53,-3755,18,68,42,16,77,-45,8104,1391,1058,0,9053,369,273,95,1,0,3,168,62,573092,0
573049,1571,-1044,-81,-778,267,-1501,7104,-327,-413,-259,-232,35057,-28,39,127,0,0,1,0,0,1,100,0,0,200,0,0,33,30,25,5,142,1516,-593,-748,-45,-3817,18,68,42,16,77,-45,7817,1355,1059,0,9053,369,273,105,1,0,3,168,62,573092,0
573059,1533,-827,-137,-616,237,-1392,6991,-214,60,-154,-368,35055,-46,38,127,0,0,1,0,0,1,100,0,0,200,0,0,36,30,30,2,143,1437,-758,-792,-42,-3883,18,68,42,16,77,-45,7447,1328,1060,0,9053,369,273,115,1,0,3,168,62,573103,0
573069,2394,-1535,71,-449,-73,-882,6834,-438,3,-246,-88,35066,-56,39,127,0,0,1,0,0,1,100,0,0,200,0,0,42,30,30,5,0,1377,-604,-827,-26,-3933,18,68,42,16,77,-45,7173,1291,1061,0,9053,369,273,125,1,0,3,168,62,573105,0
573079,700,-1999,-187,-456,-921,-329,6695,-216,-79,1311,80,35064,-57,38,127,0,0,1,0,0,1,100,0,0,200,0,180,37,30,30,7,-2,1333,-384,-846,-10,-3954,18,68,42,16,77,-45,6978,1258,1065,2039,9053,369,273,135,1,0,3,168,62,573105,0
